#	Time(fs)	Total Energy(kcal/mol)	Potential Energy(kcal/mol)	Kinetic Energy(kcal/mol)	Temperature(K)	Pressure(atm)	Volume(A^3)	Conserved Quantity(kcal/mol)
	0	505.71711	-95.279017	600.99612	311.62418	20887.055	7259.3462	505.71711
	10	505.31712	-106.23104	611.54816	317.09554	21021.606	7259.3462	505.31712
	20	506.0581	-99.671752	605.72986	314.07868	20936.695	7259.3462	506.0581
	30	506.02033	-76.929543	582.94987	302.26696	20594.855	7259.3462	506.02033
	40	506.06859	-89.307029	595.37561	308.70987	20406.011	7259.3462	506.06859
	50	505.97574	-91.52965	597.50539	309.81419	20066.701	7259.3462	505.97574
	60	506.2	-76.611503	582.8115	302.19522	20019.026	7259.3462	506.2
	70	506.21165	-76.869105	583.08076	302.33483	20015.262	7259.3462	506.21165
	80	505.24175	-94.579535	599.82129	311.01501	19745.856	7259.3462	505.24175
	90	505.97773	-70.098419	576.07615	298.70285	19457.357	7259.3462	505.97773
	100	506.31398	-58.562701	564.87668	292.89579	18934.849	7259.3462	506.31398
	110	505.59175	-89.667612	595.25936	308.64959	18908.43	7259.3462	505.59175
	120	506.00721	-71.678988	577.6862	299.53768	18491.582	7259.3462	506.00721
	130	506.19299	-74.070413	580.26341	300.874	18777.203	7259.3462	506.19299
	140	506.01476	-74.08266	580.09742	300.78793	18796.191	7259.3462	506.01476
	150	505.7663	-75.674593	581.44089	301.48454	19248.605	7259.3462	505.7663
	160	505.71343	-87.095311	592.80874	307.37891	19285.303	7259.3462	505.71343
	170	506.24588	-64.597289	570.84317	295.98949	19313.808	7259.3462	506.24588
	180	505.59412	-93.021796	598.61591	310.39001	19166.854	7259.3462	505.59412
	190	505.90225	-76.480138	582.38239	301.97272	19275.549	7259.3462	505.90225
	200	506.37577	-57.692045	564.06782	292.47638	19396.61	7259.3462	506.37577
	210	505.41427	-100.90788	606.32216	314.38579	19601.818	7259.3462	505.41427
	220	505.91932	-77.134751	583.05407	302.32099	19170.763	7259.3462	505.91932
	230	506.1848	-66.351185	572.53599	296.86723	19036.999	7259.3462	506.1848
	240	506.10577	-78.764852	584.87062	303.2629	19044.688	7259.3462	506.10577
	250	505.75305	-82.413565	588.16662	304.97191	19004.162	7259.3462	505.75305
	260	505.13351	-104.69329	609.8268	316.20299	19192.165	7259.3462	505.13351
	270	506.35428	-76.724088	583.07837	302.33359	18754.293	7259.3462	506.35428
	280	505.89316	-65.402434	571.29559	296.22407	18818.602	7259.3462	505.89316
	290	505.77396	-66.010872	571.78483	296.47775	18766.322	7259.3462	505.77396
	300	506.60736	-43.035538	549.6429	284.99687	18570.721	7259.3462	506.60736
	310	505.8875	-63.855951	569.74345	295.41927	18606.509	7259.3462	505.8875
	320	505.55703	-83.432158	588.98919	305.39843	18779.527	7259.3462	505.55703
	330	505.48174	-83.000521	588.48226	305.13558	18889.422	7259.3462	505.48174
	340	505.89004	-79.50987	585.39991	303.53734	18780.048	7259.3462	505.89004
	350	506.06479	-70.239537	576.30433	298.82117	19257.92	7259.3462	506.06479
	360	505.64559	-72.237695	577.88329	299.63988	19622.643	7259.3462	505.64559
	370	506.39913	-63.178767	569.5779	295.33343	19613.965	7259.3462	506.39913
	380	506.00499	-65.167425	571.17241	296.1602	19515.571	7259.3462	506.00499
	390	505.87982	-81.188241	587.06806	304.4023	19951.749	7259.3462	505.87982
	400	505.61711	-88.190299	593.80741	307.89674	19928.026	7259.3462	505.61711
	410	505.90305	-77.944698	583.84774	302.73252	20026.04	7259.3462	505.90305
	420	505.8845	-88.175736	594.06024	308.02783	19681.233	7259.3462	505.8845
	430	505.51222	-88.189542	593.70176	307.84196	19597.178	7259.3462	505.51222
	440	506.59247	-67.155024	573.74749	297.49541	19414.956	7259.3462	506.59247
	450	506.08035	-79.412884	585.49324	303.58573	19660.379	7259.3462	506.08035
	460	505.85398	-78.139371	583.99335	302.80802	19839.2	7259.3462	505.85398
	470	505.52746	-91.366092	596.89356	309.49694	19967.103	7259.3462	505.52746
	480	506.56677	-68.023104	574.58987	297.9322	19509.444	7259.3462	506.56677
	490	505.9614	-70.722982	576.68439	299.01823	19869.214	7259.3462	505.9614
	500	505.53313	-96.808251	602.34138	312.32171	20124.275	7259.3462	505.53313
	510	505.97172	-89.531195	595.50291	308.77588	19958.849	7259.3462	505.97172
	520	505.81776	-87.436585	593.25434	307.60996	20032.259	7259.3462	505.81776
	530	506.16878	-85.963917	592.1327	307.02838	19718.637	7259.3462	506.16878
	540	505.63541	-84.131518	589.76693	305.8017	19398.648	7259.3462	505.63541
	550	505.91355	-90.565073	596.47862	309.28179	19181.742	7259.3462	505.91355
	560	505.92144	-76.968394	582.88984	302.23583	19054.943	7259.3462	505.92144
	570	505.8145	-66.581354	572.39586	296.79457	19053.825	7259.3462	505.8145
	580	505.8356	-86.510937	592.34654	307.13925	18672.912	7259.3462	505.8356
	590	505.74804	-68.140945	573.88899	297.56878	19261.272	7259.3462	505.74804
	600	505.85086	-73.514241	579.36511	300.40822	19446.139	7259.3462	505.85086
	610	506.02327	-79.110869	585.13414	303.39953	19566.03	7259.3462	506.02327
	620	506.0386	-68.51623	574.55483	297.91403	19485.919	7259.3462	506.0386
	630	506.0402	-80.078991	586.11919	303.91029	19782.593	7259.3462	506.0402
	640	505.66558	-83.594904	589.26048	305.53909	19943.544	7259.3462	505.66558
	650	505.82127	-92.55956	598.38083	310.26811	20071.033	7259.3462	505.82127
	660	506.12141	-87.57957	593.70098	307.84155	19925.003	7259.3462	506.12141
	670	505.51251	-96.090326	601.60284	311.93876	19650.826	7259.3462	505.51251
	680	505.9411	-89.268612	595.20972	308.62385	19715.646	7259.3462	505.9411
	690	506.03782	-72.120781	578.1586	299.78263	19737.223	7259.3462	506.03782
	700	506.39114	-77.675924	584.06707	302.84624	19853.168	7259.3462	506.39114
	710	505.7415	-98.673836	604.41533	313.39708	19531.443	7259.3462	505.7415
	720	505.32074	-107.26471	612.58546	317.63339	19464.322	7259.3462	505.32074
	730	506.33394	-94.435471	600.76941	311.50662	19623.986	7259.3462	506.33394
	740	505.98534	-92.535979	598.52132	310.34096	19910.18	7259.3462	505.98534
	750	505.72021	-95.726901	601.44711	311.85802	20240.866	7259.3462	505.72021
	760	505.85502	-91.695201	597.55022	309.83743	20421.699	7259.3462	505.85502
	770	506.00926	-79.760725	585.76998	303.72923	20632.294	7259.3462	506.00926
	780	505.81005	-89.050094	594.86015	308.44259	20878.58	7259.3462	505.81005
	790	505.90348	-88.323543	594.22702	308.11431	20789.906	7259.3462	505.90348
	800	505.71664	-89.670482	595.38712	308.71583	20725.971	7259.3462	505.71664
	810	505.98499	-84.601592	590.58658	306.22669	20963.043	7259.3462	505.98499
	820	505.58917	-101.69843	607.2876	314.88639	20818.814	7259.3462	505.58917
	830	505.92815	-82.993407	588.92155	305.36336	20597.637	7259.3462	505.92815
	840	506.57434	-73.078499	579.65284	300.55741	20370.226	7259.3462	506.57434
	850	505.28804	-104.57037	609.85841	316.21938	20661.758	7259.3462	505.28804
	860	505.87739	-85.870939	591.74833	306.82908	20560.03	7259.3462	505.87739
	870	505.96475	-90.209904	596.17465	309.12418	20789.511	7259.3462	505.96475
	880	506.12277	-88.94623	595.069	308.55089	20827.93	7259.3462	506.12277
	890	505.47777	-96.591661	602.06943	312.1807	20640.9	7259.3462	505.47777
	900	505.72437	-91.022485	596.74685	309.42088	20627.807	7259.3462	505.72437
	910	506.79629	-60.697245	567.49353	294.25266	20112.76	7259.3462	506.79629
	920	505.95466	-75.799696	581.75435	301.64707	20203.994	7259.3462	505.95466
	930	505.52923	-104.08542	609.61466	316.093	20341.13	7259.3462	505.52923
	940	505.73507	-92.331379	598.06644	310.1051	20501.735	7259.3462	505.73507
	950	506.20911	-68.594826	574.80394	298.04319	20366.766	7259.3462	506.20911
	960	505.89691	-90.662866	596.55978	309.32387	20121.931	7259.3462	505.89691
	970	505.72677	-74.727452	580.45422	300.97294	20410.924	7259.3462	505.72677
	980	506.49376	-67.109123	573.60288	297.42043	20339.101	7259.3462	506.49376
	990	505.73497	-87.222338	592.95731	307.45595	20464.965	7259.3462	505.73497
	1000	505.6352	-88.020203	593.6554	307.81792	20476.453	7259.3462	505.6352
	1010	506.49818	-87.104807	593.60299	307.79074	20103.513	7259.3462	506.49818
	1020	505.7729	-86.487471	592.26037	307.09458	19621.467	7259.3462	505.7729
	1030	505.89191	-94.385852	600.27776	311.25169	19618.981	7259.3462	505.89191
	1040	505.62593	-114.84436	620.47028	321.72178	19445.855	7259.3462	505.62593
	1050	506.28876	-86.338761	592.62752	307.28495	19178.768	7259.3462	506.28876
	1060	506.10387	-100.83804	606.94191	314.70714	19063.293	7259.3462	506.10387
	1070	505.055	-111.30399	616.35899	319.59002	19309.568	7259.3462	505.055
	1080	506.61057	-74.094817	580.70539	301.10317	19402.083	7259.3462	506.61057
	1090	506.23514	-78.539639	584.77478	303.2132	19345.859	7259.3462	506.23514
	1100	505.52127	-100.78253	606.3038	314.37627	19425.88	7259.3462	505.52127
	1110	505.35431	-109.32278	614.67709	318.71793	19582.889	7259.3462	505.35431
	1120	506.10205	-89.653954	595.756	308.90711	19781.713	7259.3462	506.10205
	1130	506.1469	-82.129415	588.27631	305.02879	19882.9	7259.3462	506.1469
	1140	505.67117	-86.554923	592.22609	307.0768	19789.714	7259.3462	505.67117
	1150	506.05957	-77.606572	583.66614	302.63836	19885.853	7259.3462	506.05957
	1160	506.53175	-66.424439	572.95619	297.08511	20290.81	7259.3462	506.53175
	1170	505.74226	-99.50192	605.24418	313.82685	20488.503	7259.3462	505.74226
	1180	505.30331	-114.67204	619.97535	321.46515	20609.761	7259.3462	505.30331
	1190	506.09537	-88.463903	594.55927	308.28659	20632.278	7259.3462	506.09537
	1200	506.09271	-83.617804	589.71052	305.77244	20767.32	7259.3462	506.09271
	1210	505.55032	-80.983471	586.53379	304.12527	21085.601	7259.3462	505.55032
	1220	506.46687	-47.848522	554.31539	287.41962	20686.371	7259.3462	506.46687
	1230	506.27911	-61.764903	568.04401	294.53808	20332.606	7259.3462	506.27911
	1240	505.63213	-79.700807	585.33293	303.50261	20713.891	7259.3462	505.63213
	1250	505.37203	-79.831738	585.20377	303.43564	20790.989	7259.3462	505.37203
	1260	506.31597	-55.269125	561.5851	291.18906	20612.049	7259.3462	506.31597
	1270	506.51876	-46.491851	553.01061	286.74307	20068.097	7259.3462	506.51876
	1280	505.30029	-89.700778	595.00106	308.51566	19676.138	7259.3462	505.30029
	1290	505.6979	-94.817642	600.51554	311.37499	19496.529	7259.3462	505.6979
	1300	506.62769	-63.352845	569.98053	295.5422	19181.349	7259.3462	506.62769
	1310	505.87213	-88.739097	594.61123	308.31353	19256.672	7259.3462	505.87213
	1320	505.29059	-96.246965	601.53756	311.90492	19161.226	7259.3462	505.29059
	1330	505.76413	-72.693209	578.45734	299.93753	19203.399	7259.3462	505.76413
	1340	506.82376	-51.996359	558.82012	289.75538	19406.652	7259.3462	506.82376
	1350	505.66571	-70.191519	575.85723	298.58934	19782.85	7259.3462	505.66571
	1360	505.37654	-98.879988	604.25653	313.31474	19831.512	7259.3462	505.37654
	1370	506.21758	-75.887657	582.10524	301.82901	19789.526	7259.3462	506.21758
	1380	505.73207	-76.434917	582.16699	301.86103	20533.685	7259.3462	505.73207
	1390	506.01954	-95.662952	601.6825	311.98007	20970.38	7259.3462	506.01954
	1400	505.74062	-83.669985	589.4106	305.61694	20625.377	7259.3462	505.74062
	1410	506.52662	-79.843276	586.3699	304.04029	20328.982	7259.3462	506.52662
	1420	505.2201	-116.52448	621.74459	322.38252	20616.534	7259.3462	505.2201
	1430	505.69813	-89.673552	595.37168	308.70783	20747.94	7259.3462	505.69813
	1440	506.74264	-73.965293	580.70793	301.10449	20477	7259.3462	506.74264
	1450	505.45147	-93.808872	599.26034	310.72415	20434.893	7259.3462	505.45147
	1460	505.32505	-99.560399	604.88545	313.64084	20025.203	7259.3462	505.32505
	1470	506.29126	-76.998403	583.28966	302.44315	19653.464	7259.3462	506.29126
	1480	507.04455	-44.035011	551.07956	285.7418	19918.445	7259.3462	507.04455
	1490	505.37988	-97.39065	602.77053	312.54423	19964.042	7259.3462	505.37988
	1500	505.09353	-102.64172	607.73525	315.1185	19811.843	7259.3462	505.09353
	1510	506.33714	-68.842457	575.1796	298.23798	19286.675	7259.3462	506.33714
	1520	506.64919	-61.212052	567.86124	294.44332	19197.954	7259.3462	506.64919
	1530	505.60459	-74.712136	580.31673	300.90165	19460.069	7259.3462	505.60459
	1540	505.52567	-86.483106	592.00877	306.96412	19436.225	7259.3462	505.52567
	1550	506.61171	-49.765597	556.3773	288.48875	19476.698	7259.3462	506.61171
	1560	506.01369	-56.261595	562.27529	291.54693	19511.575	7259.3462	506.01369
	1570	506.03898	-66.900457	572.93944	297.07643	19371.137	7259.3462	506.03898
	1580	505.70838	-82.000101	587.70848	304.73436	19002.325	7259.3462	505.70838
	1590	505.99231	-76.723884	582.7162	302.1458	19027.281	7259.3462	505.99231
	1600	505.79841	-78.913813	584.71222	303.18077	19032.902	7259.3462	505.79841
	1610	506.235	-55.217208	561.45221	291.12015	19240.159	7259.3462	506.235
	1620	506.41425	-42.485937	548.90018	284.61177	19694.596	7259.3462	506.41425
	1630	505.2248	-72.658343	577.88314	299.6398	19773.742	7259.3462	505.2248
	1640	505.7159	-62.972189	568.68809	294.87205	19865.132	7259.3462	505.7159
	1650	506.8219	-24.163852	530.98575	275.3229	19893.732	7259.3462	506.8219
	1660	506.04067	-59.89053	565.9312	293.44256	20144.476	7259.3462	506.04067
	1670	505.1824	-74.893451	580.07585	300.77675	20065.095	7259.3462	505.1824
	1680	505.55433	-66.141404	571.69574	296.43155	20127.958	7259.3462	505.55433
	1690	506.94322	-42.019815	548.96304	284.64436	19789.061	7259.3462	506.94322
	1700	506.19568	-49.639643	555.83532	288.20772	19480.094	7259.3462	506.19568
	1710	504.8435	-102.79106	607.63456	315.06629	19491.433	7259.3462	504.8435
	1720	506.16244	-61.952069	568.11451	294.57464	19447.295	7259.3462	506.16244
	1730	506.39189	-52.009063	558.40096	289.53804	19191.461	7259.3462	506.39189
	1740	506.22386	-65.636826	571.86068	296.51708	19074.947	7259.3462	506.22386
	1750	505.4789	-80.568624	586.04752	303.87313	19221.864	7259.3462	505.4789
	1760	505.60348	-89.190296	594.79378	308.40818	19267.523	7259.3462	505.60348
	1770	506.17696	-56.070003	562.24696	291.53224	19537.762	7259.3462	506.17696
	1780	505.90501	-55.872229	561.77724	291.28868	19748.061	7259.3462	505.90501
	1790	506.4648	-54.691912	561.15671	290.96693	19579.249	7259.3462	506.4648
	1800	505.53958	-79.865368	585.40494	303.53995	19946.521	7259.3462	505.53958
	1810	505.67186	-75.537955	581.20981	301.36472	20515.411	7259.3462	505.67186
	1820	506.0988	-67.209696	573.30849	297.26779	20621.352	7259.3462	506.0988
	1830	506.17977	-59.031519	565.21129	293.06928	20478.611	7259.3462	506.17977
	1840	506.07092	-75.676052	581.74698	301.64325	20290.828	7259.3462	506.07092
	1850	504.87463	-105.47671	610.35134	316.47498	20711.433	7259.3462	504.87463
	1860	506.72367	-55.945565	562.66923	291.75119	20561.86	7259.3462	506.72367
	1870	506.06443	-71.216132	577.28056	299.32736	20368.038	7259.3462	506.06443
	1880	505.69505	-83.18622	588.88127	305.34247	20014.936	7259.3462	505.69505
	1890	505.60363	-81.378971	586.9826	304.35798	19615.517	7259.3462	505.60363
	1900	506.01184	-83.08337	589.09521	305.4534	19951.306	7259.3462	506.01184
	1910	506.25535	-51.70906	557.96441	289.31168	19942.606	7259.3462	506.25535
	1920	505.39529	-86.467189	591.86248	306.88826	20160.558	7259.3462	505.39529
	1930	506.25496	-72.194801	578.44976	299.9336	19802.512	7259.3462	506.25496
	1940	505.97494	-59.668452	565.64339	293.29333	19800.549	7259.3462	505.97494
	1950	505.91337	-79.859801	585.77317	303.73088	20179.82	7259.3462	505.91337
	1960	505.66146	-79.673885	585.33535	303.50386	20172.419	7259.3462	505.66146
	1970	505.9053	-83.119247	589.02454	305.41676	20115.987	7259.3462	505.9053
	1980	506.08083	-75.339647	581.42048	301.47395	20179.574	7259.3462	506.08083
	1990	505.65712	-80.348579	586.0057	303.85145	20263.212	7259.3462	505.65712
	2000	505.98118	-80.052951	586.03414	303.86619	20652.887	7259.3462	505.98118
	2010	506.26041	-74.826251	581.08666	301.30086	20455.973	7259.3462	506.26041
	2020	505.64246	-98.900223	604.54268	313.46311	20499.735	7259.3462	505.64246
	2030	505.58686	-99.57942	605.16628	313.78646	20373.012	7259.3462	505.58686
	2040	505.90713	-90.982047	596.88918	309.49467	20292.211	7259.3462	505.90713
	2050	506.02024	-72.91907	578.93931	300.18743	20348.325	7259.3462	506.02024
	2060	505.7617	-69.369676	575.13138	298.21297	20450.38	7259.3462	505.7617
	2070	505.79909	-87.130408	592.9295	307.44153	20282.142	7259.3462	505.79909
	2080	506.3456	-68.357237	574.70283	297.99077	20190.188	7259.3462	506.3456
	2090	505.57587	-86.26764	591.84351	306.87843	20296.864	7259.3462	505.57587
	2100	505.5024	-98.043866	603.54626	312.94646	20601.71	7259.3462	505.5024
	2110	506.3945	-55.459465	561.85396	291.32847	20388.411	7259.3462	506.3945
	2120	506.07058	-67.614427	573.685	297.46301	19997.91	7259.3462	506.07058
	2130	505.60575	-91.808819	597.41457	309.7671	19964.103	7259.3462	505.60575
	2140	505.75965	-90.091775	595.85142	308.95658	19937.127	7259.3462	505.75965
	2150	506.16501	-80.298196	586.4632	304.08867	19835.625	7259.3462	506.16501
	2160	506.08648	-74.494558	580.58104	301.03869	19865.8	7259.3462	506.08648
	2170	505.4885	-87.037834	592.52633	307.23248	19875.256	7259.3462	505.4885
	2180	505.91334	-88.713082	594.62642	308.3214	19691.398	7259.3462	505.91334
	2190	506.19362	-70.047475	576.24109	298.78838	19648.16	7259.3462	506.19362
	2200	505.57106	-95.770209	601.34126	311.80314	19572.6	7259.3462	505.57106
	2210	506.12145	-79.034672	585.15612	303.41093	19517.379	7259.3462	506.12145
	2220	505.62445	-74.459695	580.08415	300.78105	19464.609	7259.3462	505.62445
	2230	505.93433	-69.46547	575.3998	298.35216	19267.015	7259.3462	505.93433
	2240	505.71217	-67.427214	573.13938	297.1801	19524.014	7259.3462	505.71217
	2250	506.20749	-68.060719	574.26821	297.76541	19530.942	7259.3462	506.20749
	2260	506.44351	-69.216705	575.66022	298.48719	19370.054	7259.3462	506.44351
	2270	505.13988	-93.72739	598.86727	310.52034	19680.238	7259.3462	505.13988
	2280	505.6013	-91.895484	597.49678	309.80972	20175.799	7259.3462	505.6013
	2290	506.03743	-66.38961	572.42704	296.81074	20276.565	7259.3462	506.03743
	2300	506.10536	-54.061799	560.16716	290.45383	20569.6	7259.3462	506.10536
	2310	505.72569	-78.81899	584.54468	303.09389	20313.023	7259.3462	505.72569
	2320	505.49355	-74.048823	579.54238	300.50013	19667.734	7259.3462	505.49355
	2330	506.48093	-56.718996	563.19993	292.02636	19696.401	7259.3462	506.48093
	2340	505.63309	-77.029291	582.66238	302.1179	19763.617	7259.3462	505.63309
	2350	505.78097	-73.971152	579.75212	300.60889	19486.397	7259.3462	505.78097
	2360	506.01727	-67.91864	573.93591	297.59311	19395.268	7259.3462	506.01727
	2370	505.67039	-65.765276	571.43566	296.2967	19462.919	7259.3462	505.67039
	2380	506.23405	-54.158658	560.39271	290.57079	19600.489	7259.3462	506.23405
	2390	505.75462	-74.005306	579.75992	300.61293	19635.756	7259.3462	505.75462
	2400	506.10623	-76.113346	582.21957	301.88829	19821.684	7259.3462	506.10623
	2410	505.3091	-100.23381	605.54291	313.98174	19734.139	7259.3462	505.3091
	2420	505.71982	-100.48672	606.20653	314.32584	19888.147	7259.3462	505.71982
	2430	506.11774	-81.58837	587.70611	304.73313	20012.825	7259.3462	506.11774
	2440	505.97766	-88.252032	594.22969	308.11569	20335.343	7259.3462	505.97766
	2450	505.94952	-74.869474	580.81899	301.16208	20620.891	7259.3462	505.94952
	2460	505.58321	-74.894809	580.47802	300.98528	20406.17	7259.3462	505.58321
	2470	506.30168	-74.202597	580.50427	300.99889	20228.205	7259.3462	506.30168
	2480	505.3105	-93.605812	598.91631	310.54577	20121.49	7259.3462	505.3105
	2490	505.90241	-82.882264	588.78467	305.29238	20091.831	7259.3462	505.90241
	2500	506.27173	-76.742287	583.01401	302.30022	19798.076	7259.3462	506.27173
	2510	505.78164	-64.696928	570.47857	295.80043	19716.618	7259.3462	505.78164
	2520	506.14573	-72.335084	578.48082	299.9497	19668.861	7259.3462	506.14573
	2530	505.26784	-100.86769	606.13554	314.28903	20010.564	7259.3462	505.26784
	2540	506.31876	-47.058896	553.37765	286.93339	20083.852	7259.3462	506.31876
	2550	505.68957	-75.765806	581.45537	301.49205	19818.099	7259.3462	505.68957
	2560	505.77166	-64.030099	569.80176	295.4495	19469.873	7259.3462	505.77166
	2570	506.18369	-31.358506	537.5422	278.7225	19346.04	7259.3462	506.18369
	2580	505.9375	-63.187159	569.12466	295.09841	19375.576	7259.3462	505.9375
	2590	506.14243	-61.166299	567.30873	294.15683	19438.806	7259.3462	506.14243
	2600	505.18256	-100.61247	605.79503	314.11247	19750.7	7259.3462	505.18256
	2610	506.02909	-86.068503	592.09759	307.01017	19653.274	7259.3462	506.02909
	2620	505.6695	-64.859639	570.52914	295.82665	19772.928	7259.3462	505.6695
	2630	506.0746	-75.204866	581.27946	301.40084	19700.024	7259.3462	506.0746
	2640	506.31553	-61.06321	567.37874	294.19313	19612.741	7259.3462	506.31553
	2650	505.73873	-77.784785	583.52351	302.5644	19861.098	7259.3462	505.73873
	2660	505.58629	-86.966167	592.55245	307.24602	20157.547	7259.3462	505.58629
	2670	505.54524	-60.544608	566.08985	293.52483	20105.125	7259.3462	505.54524
	2680	506.42072	-61.924911	568.34563	294.69448	19777.354	7259.3462	506.42072
	2690	506.08732	-64.722191	570.80951	295.97203	19647.306	7259.3462	506.08732
	2700	505.49114	-87.185135	592.67627	307.31023	19869.164	7259.3462	505.49114
	2710	505.52687	-95.027789	600.55465	311.39527	20050.688	7259.3462	505.52687
	2720	506.18627	-60.861375	567.04765	294.02146	19973.49	7259.3462	506.18627
	2730	506.01364	-79.775426	585.78907	303.73912	20188.967	7259.3462	506.01364
	2740	505.61979	-77.530862	583.15065	302.37107	20236.204	7259.3462	505.61979
	2750	505.81115	-72.41785	578.229	299.81913	20183.636	7259.3462	505.81115
	2760	506.00527	-68.849763	574.85503	298.06968	20220.152	7259.3462	506.00527
	2770	506.01999	-59.833312	565.8533	293.40217	19500.241	7259.3462	506.01999
	2780	505.5979	-74.095256	579.69316	300.57832	19269.556	7259.3462	505.5979
	2790	506.08903	-65.884267	571.9733	296.57547	19046.21	7259.3462	506.08903
	2800	505.58528	-75.429667	581.01494	301.26368	19153.338	7259.3462	505.58528
	2810	505.88692	-71.79689	577.68381	299.53644	18542.618	7259.3462	505.88692
	2820	505.99183	-72.226899	578.21872	299.8138	18490.258	7259.3462	505.99183
	2830	506.09515	-60.752623	566.84777	293.91782	18782.222	7259.3462	506.09515
	2840	505.75996	-64.36584	570.1258	295.61752	19153.237	7259.3462	505.75996
	2850	505.63897	-91.815817	597.45478	309.78795	19102.042	7259.3462	505.63897
	2860	506.23503	-66.729199	572.96423	297.08928	19023.053	7259.3462	506.23503
	2870	505.32277	-91.572467	596.89524	309.49781	19247.22	7259.3462	505.32277
	2880	506.29274	-75.923474	582.21622	301.88655	19289.884	7259.3462	506.29274
	2890	505.66974	-62.581298	568.25104	294.64543	19271.933	7259.3462	505.66974
	2900	506.12907	-73.808135	579.93721	300.70486	19019.984	7259.3462	506.12907
	2910	505.61799	-79.745495	585.36349	303.51845	19126.873	7259.3462	505.61799
	2920	505.54514	-60.321402	565.86654	293.40904	19476.971	7259.3462	505.54514
	2930	506.21892	-67.514987	573.73391	297.48837	19552.804	7259.3462	506.21892
	2940	505.3544	-60.014882	565.36928	293.1512	19654.37	7259.3462	505.3544
	2950	506.15233	-55.120746	561.27308	291.02727	19384.219	7259.3462	506.15233
	2960	505.83658	-65.270978	571.10756	296.12657	19151.532	7259.3462	505.83658
	2970	506.16321	-46.651963	552.81517	286.64173	19000.756	7259.3462	506.16321
	2980	505.40666	-94.948417	600.35508	311.29179	19620.742	7259.3462	505.40666
	2990	505.65638	-68.342292	573.99867	297.62565	19399.408	7259.3462	505.65638
	3000	505.77362	-68.021895	573.79552	297.52031	18957.247	7259.3462	505.77362
	3010	506.4056	-62.581112	568.98671	295.02689	18879.705	7259.3462	506.4056
	3020	505.83336	-59.074598	564.90796	292.912	19232.982	7259.3462	505.83336
	3030	505.61407	-83.117702	588.73177	305.26495	19503.535	7259.3462	505.61407
	3040	505.89937	-74.010945	579.91032	300.69092	19369.065	7259.3462	505.89937
	3050	505.49009	-79.07342	584.56351	303.10366	19510.295	7259.3462	505.49009
	3060	506.22637	-68.115637	574.34201	297.80368	19842.335	7259.3462	506.22637
	3070	505.7466	-54.54079	560.28739	290.51618	19609.64	7259.3462	505.7466
	3080	506.22339	-53.046909	559.2703	289.98881	19845.631	7259.3462	506.22339
	3090	505.88452	-68.768205	574.65272	297.96479	19603.057	7259.3462	505.88452
	3100	505.78852	-75.913981	581.7025	301.62019	19818.136	7259.3462	505.78852
	3110	505.92492	-86.796762	592.72168	307.33377	20045.431	7259.3462	505.92492
	3120	505.5114	-75.739174	581.25058	301.38586	20366.661	7259.3462	505.5114
	3130	505.9237	-68.688015	574.61171	297.94352	20487.877	7259.3462	505.9237
	3140	506.35804	-66.302788	572.66082	296.93196	19869.16	7259.3462	506.35804
	3150	506.1828	-65.535688	571.71849	296.44335	19753.881	7259.3462	506.1828
	3160	505.40585	-97.871074	603.27693	312.8068	20036.743	7259.3462	505.40585
	3170	505.94558	-81.484223	587.4298	304.58986	20155.099	7259.3462	505.94558
	3180	505.74453	-79.32712	585.07165	303.36713	20091.647	7259.3462	505.74453
	3190	505.99183	-80.148814	586.14065	303.92142	19695.75	7259.3462	505.99183
	3200	505.64469	-73.200734	578.84543	300.13876	19187.991	7259.3462	505.64469
	3210	505.82605	-77.183755	583.00981	302.29804	19175.054	7259.3462	505.82605
	3220	506.43051	-50.67873	557.10924	288.86826	18720.077	7259.3462	506.43051
	3230	505.52475	-77.935702	583.46045	302.53171	18928.621	7259.3462	505.52475
	3240	505.34046	-97.277785	602.61825	312.46527	18710.083	7259.3462	505.34046
	3250	506.16722	-55.654786	561.82201	291.3119	18521.323	7259.3462	506.16722
	3260	505.61454	-76.496376	582.11091	301.83195	18894.573	7259.3462	505.61454
	3270	506.21807	-56.580575	562.79865	291.8183	18764.393	7259.3462	506.21807
	3280	505.51836	-73.144621	578.66298	300.04416	18849.476	7259.3462	505.51836
	3290	505.53269	-86.532654	592.06534	306.99345	18759.786	7259.3462	505.53269
	3300	506.22517	-57.502236	563.7274	292.29987	18631.056	7259.3462	506.22517
	3310	505.30067	-85.488707	590.78937	306.33185	18684.831	7259.3462	505.30067
	3320	506.3517	-60.640512	566.99221	293.99271	18363.994	7259.3462	506.3517
	3330	505.78441	-69.357172	575.14158	298.21827	18462.464	7259.3462	505.78441
	3340	505.4769	-90.398397	595.87529	308.96896	18290.179	7259.3462	505.4769
	3350	506.17621	-52.816659	558.99287	289.84495	17743.499	7259.3462	506.17621
	3360	505.91928	-80.330423	586.2497	303.97797	18060.759	7259.3462	505.91928
	3370	506.00283	-66.278399	572.28123	296.73514	18427.63	7259.3462	506.00283
	3380	505.5843	-57.975857	563.56016	292.21315	18878.285	7259.3462	505.5843
	3390	506.00055	-70.311302	576.31185	298.82506	19496.11	7259.3462	506.00055
	3400	506.44383	-40.021807	546.46564	283.34942	19635.308	7259.3462	506.44383
	3410	505.40544	-80.8938	586.29924	304.00366	20161.247	7259.3462	505.40544
	3420	505.37632	-92.486376	597.8627	309.99945	20154.233	7259.3462	505.37632
	3430	506.3896	-50.453031	556.84264	288.73003	20237.534	7259.3462	506.3896
	3440	505.84499	-84.843426	590.68842	306.2795	20780.641	7259.3462	505.84499
	3450	505.68216	-79.708859	585.39102	303.53273	20487.178	7259.3462	505.68216
	3460	505.62879	-80.964651	586.59344	304.1562	20615.001	7259.3462	505.62879
	3470	506.0741	-77.548763	583.62286	302.61592	20548.751	7259.3462	506.0741
	3480	505.95097	-66.290684	572.24166	296.71462	20155.527	7259.3462	505.95097
	3490	505.89083	-77.98178	583.87261	302.74541	20113.859	7259.3462	505.89083
	3500	505.98876	-79.495056	585.48381	303.58084	19892.743	7259.3462	505.98876
	3510	505.68637	-87.896513	593.58288	307.78031	20395.548	7259.3462	505.68637
	3520	505.70302	-75.353489	581.05651	301.28523	20554.465	7259.3462	505.70302
	3530	505.93724	-79.114758	585.052	303.35695	20175.529	7259.3462	505.93724
	3540	506.48062	-47.062204	553.54283	287.01903	20093.193	7259.3462	506.48062
	3550	505.81287	-71.145723	576.95859	299.16041	20266.934	7259.3462	505.81287
	3560	505.57855	-94.215796	599.79435	311.00104	20320.21	7259.3462	505.57855
	3570	505.80012	-71.739444	577.53957	299.46165	20391.504	7259.3462	505.80012
	3580	506.13324	-85.150462	591.2837	306.58816	20171.824	7259.3462	506.13324
	3590	505.18219	-104.96676	610.14894	316.37003	19862.933	7259.3462	505.18219
	3600	505.85543	-88.55574	594.41117	308.20979	19601.206	7259.3462	505.85543
	3610	506.05369	-87.534986	593.58868	307.78332	19642.298	7259.3462	506.05369
	3620	506.10375	-63.641668	569.74542	295.42029	19834.28	7259.3462	506.10375
	3630	505.83475	-73.385556	579.2203	300.33314	19485.462	7259.3462	505.83475
	3640	505.33556	-85.914951	591.25051	306.57095	19287.502	7259.3462	505.33556
	3650	506.51523	-49.378029	555.89325	288.23776	19051.168	7259.3462	506.51523
	3660	505.71005	-62.518759	568.22881	294.6339	18775.545	7259.3462	505.71005
	3670	505.7612	-60.35583	566.11703	293.53892	18678.555	7259.3462	505.7612
	3680	505.92326	-62.703158	568.62642	294.84007	18010.334	7259.3462	505.92326
	3690	505.28405	-94.088187	599.37223	310.78217	18028.127	7259.3462	505.28405
	3700	505.98103	-65.231168	571.2122	296.18083	18018.524	7259.3462	505.98103
	3710	505.75333	-63.307762	569.0611	295.06546	17885.939	7259.3462	505.75333
	3720	506.11254	-63.850738	569.96328	295.53325	18307.1	7259.3462	506.11254
	3730	505.99123	-47.570142	553.56137	287.02865	18516.408	7259.3462	505.99123
	3740	505.62729	-73.247568	578.87486	300.15402	18696.646	7259.3462	505.62729
	3750	505.8002	-80.812275	586.61248	304.16607	19245.935	7259.3462	505.8002
	3760	505.61177	-65.319279	570.93105	296.03505	19694.524	7259.3462	505.61177
	3770	505.65894	-97.787981	603.44692	312.89495	19863.629	7259.3462	505.65894
	3780	505.91593	-64.138696	570.05463	295.58061	19766.188	7259.3462	505.91593
	3790	506.59158	-40.596522	547.1881	283.72403	19588.341	7259.3462	506.59158
	3800	505.50446	-106.22823	611.73268	317.19122	19857.454	7259.3462	505.50446
	3810	505.96912	-70.203561	576.17268	298.7529	19954.929	7259.3462	505.96912
	3820	505.84199	-95.279097	601.12109	311.68897	20314.592	7259.3462	505.84199
	3830	505.42001	-99.893961	605.31398	313.86304	20430.018	7259.3462	505.42001
	3840	506.16999	-65.703834	571.87382	296.52389	20351.607	7259.3462	506.16999
	3850	505.31168	-106.52923	611.84091	317.24734	20338.859	7259.3462	505.31168
	3860	506.84051	-47.196706	554.03722	287.27538	19622.588	7259.3462	506.84051
	3870	505.48829	-102.0894	607.57768	315.0368	19865.436	7259.3462	505.48829
	3880	505.15936	-111.7916	616.95096	319.89696	19825.185	7259.3462	505.15936
	3890	506.36315	-59.009769	565.37292	293.15309	19604.071	7259.3462	506.36315
	3900	505.35455	-98.779428	604.13398	313.25119	20193.158	7259.3462	505.35455
	3910	506.50545	-56.564045	563.06949	291.95873	20309.204	7259.3462	506.50545
	3920	505.34388	-80.151566	585.49545	303.58688	21064.417	7259.3462	505.34388
	3930	506.10002	-75.734985	581.83501	301.68889	20707.739	7259.3462	506.10002
	3940	505.65483	-69.015281	574.67011	297.9738	20536.918	7259.3462	505.65483
	3950	505.63899	-74.166521	579.80551	300.63657	20551.688	7259.3462	505.63899
	3960	506.12324	-54.926296	561.04953	290.91136	19702.637	7259.3462	506.12324
	3970	505.65261	-62.077942	567.73055	294.37555	19358.863	7259.3462	505.65261
	3980	506.04395	-64.718678	570.76263	295.94772	18945.366	7259.3462	506.04395
	3990	505.29984	-87.513086	592.81293	307.38108	18836.659	7259.3462	505.29984
	4000	506.24	-58.384113	564.62411	292.76482	19227.606	7259.3462	506.24
	4010	505.57819	-79.787421	585.36562	303.51956	19143.7	7259.3462	505.57819
	4020	505.62352	-84.063685	589.6872	305.76036	18740.2	7259.3462	505.62352
	4030	506.07571	-47.420897	553.4966	286.99507	18660.209	7259.3462	506.07571
	4040	506.30933	-51.345617	557.65495	289.15122	18967.843	7259.3462	506.30933
	4050	506.35752	-43.768683	550.1262	285.24747	19043.099	7259.3462	506.35752
	4060	504.97288	-81.946478	586.91936	304.32519	19235.221	7259.3462	504.97288
	4070	505.66751	-84.493452	590.16096	306.006	18911.374	7259.3462	505.66751
	4080	506.3248	-40.437064	546.76186	283.50302	18801.86	7259.3462	506.3248
	4090	506.17421	-63.431108	569.60532	295.34764	18995.905	7259.3462	506.17421
	4100	505.78475	-59.662784	565.44754	293.19178	19025.31	7259.3462	505.78475
	4110	505.75488	-66.341812	572.09669	296.63945	19262.163	7259.3462	505.75488
	4120	506	-73.539889	579.53989	300.49885	19372.677	7259.3462	506
	4130	505.86749	-49.262661	555.13016	287.84209	19610.817	7259.3462	505.86749
	4140	505.45378	-69.768124	575.22191	298.25992	20073.12	7259.3462	505.45378
	4150	506.15852	-54.153453	560.31198	290.52893	19958.987	7259.3462	506.15852
	4160	505.77907	-57.905665	563.68473	292.27774	19864.12	7259.3462	505.77907
	4170	505.54329	-72.24807	577.79136	299.59221	19516.012	7259.3462	505.54329
	4180	506.06174	-64.872061	570.9338	296.03648	19278.096	7259.3462	506.06174
	4190	505.90447	-70.267077	576.17155	298.75232	19234.905	7259.3462	505.90447
	4200	505.59733	-83.207288	588.80462	305.30272	19178.809	7259.3462	505.59733
	4210	505.43949	-72.950942	578.39044	299.90284	18890.866	7259.3462	505.43949
	4220	506.46696	-43.902196	550.36916	285.37345	18629.193	7259.3462	506.46696
	4230	505.7469	-74.278031	580.02493	300.75034	18797.98	7259.3462	505.7469
	4240	505.58524	-71.246321	576.83156	299.09454	18966.17	7259.3462	505.58524
	4250	505.8415	-62.577001	568.4185	294.73226	18992.333	7259.3462	505.8415
	4260	506.24296	-59.361662	565.60462	293.27323	18988.552	7259.3462	506.24296
	4270	506.16308	-50.938842	557.10192	288.86447	18832.58	7259.3462	506.16308
	4280	505.224	-99.073378	604.29738	313.33592	19582.02	7259.3462	505.224
	4290	506.42708	-67.57292	574	297.62634	19637.065	7259.3462	506.42708
	4300	505.64603	-74.874057	580.52008	301.00709	20164.217	7259.3462	505.64603
	4310	505.8251	-89.752811	595.57791	308.81476	20621.282	7259.3462	505.8251
	4320	505.83402	-63.417295	569.25132	295.16409	20761.607	7259.3462	505.83402
	4330	505.78779	-78.198456	583.98625	302.80434	21125.626	7259.3462	505.78779
	4340	506.24274	-56.273938	562.51667	291.67209	21027.515	7259.3462	506.24274
	4350	505.52485	-74.380116	579.90497	300.68814	20425.533	7259.3462	505.52485
	4360	506.28808	-78.629278	584.91735	303.28713	20037.291	7259.3462	506.28808
	4370	505.4581	-88.983359	594.44145	308.2255	20153.102	7259.3462	505.4581
	4380	505.56641	-87.604459	593.17087	307.56668	20289.062	7259.3462	505.56641
	4390	505.89459	-75.453757	581.34835	301.43655	20448.311	7259.3462	505.89459
	4400	506.03743	-54.528113	560.56554	290.6604	20234.42	7259.3462	506.03743
	4410	505.88673	-55.945978	561.83271	291.31745	19864.65	7259.3462	505.88673
	4420	505.78797	-69.183663	574.97164	298.13015	19436.261	7259.3462	505.78797
	4430	505.53027	-79.512024	585.04229	303.35191	19049.881	7259.3462	505.53027
	4440	505.7948	-75.467013	581.26181	301.39168	19047.841	7259.3462	505.7948
	4450	505.39553	-66.867523	572.26306	296.72571	18991.732	7259.3462	505.39553
	4460	506.36439	-34.88176	541.24615	280.64305	18801.218	7259.3462	506.36439
	4470	506.151	-44.960859	551.11186	285.75855	19124.756	7259.3462	506.151
	4480	505.33066	-60.187644	565.5183	293.22847	19521.355	7259.3462	505.33066
	4490	505.90888	-68.849168	574.75805	298.0194	19736.883	7259.3462	505.90888
	4500	505.25318	-87.017858	592.27104	307.10011	20083.114	7259.3462	505.25318
	4510	506.44853	-41.178507	547.62704	283.95162	20172.097	7259.3462	506.44853
	4520	505.88958	-43.168337	549.05792	284.69355	20427.904	7259.3462	505.88958
	4530	505.89006	-50.935731	556.82579	288.72129	20381.515	7259.3462	505.89006
	4540	506.29001	-54.493949	560.78396	290.77366	20111.388	7259.3462	506.29001
	4550	505.13811	-99.090318	604.22843	313.30017	19846.901	7259.3462	505.13811
	4560	505.80582	-85.860337	591.66616	306.78647	19619.847	7259.3462	505.80582
	4570	505.5031	-75.710247	581.21335	301.36655	19696.61	7259.3462	505.5031
	4580	506.14538	-54.102927	560.24831	290.49591	19627.872	7259.3462	506.14538
	4590	506.34381	-49.696673	556.04048	288.3141	19721.865	7259.3462	506.34381
	4600	505.63678	-67.321466	572.95825	297.08618	19782.508	7259.3462	505.63678
	4610	505.98799	-72.436661	578.42466	299.92058	19811.449	7259.3462	505.98799
	4620	505.50045	-80.44792	585.94837	303.82172	19643.234	7259.3462	505.50045
	4630	506.0291	-60.667773	566.69687	293.83958	19206.109	7259.3462	506.0291
	4640	506.07636	-58.979203	565.05556	292.98853	18747.361	7259.3462	506.07636
	4650	506.17295	-55.356048	561.52899	291.15996	18612.46	7259.3462	506.17295
	4660	505.42356	-79.352545	584.7761	303.21389	18630.327	7259.3462	505.42356
	4670	505.57081	-68.621719	574.19252	297.72617	18912.108	7259.3462	505.57081
	4680	506.27011	-47.53925	553.80935	287.15723	19069.339	7259.3462	506.27011
	4690	505.67028	-59.235768	564.90605	292.91101	18947	7259.3462	505.67028
	4700	505.90015	-50.894124	556.79428	288.70495	19240.445	7259.3462	505.90015
	4710	505.94825	-57.137733	563.08599	291.96729	19389.137	7259.3462	505.94825
	4720	505.89752	-63.201494	569.09901	295.08512	19458.932	7259.3462	505.89752
	4730	505.55124	-85.724546	591.27578	306.58405	19501.461	7259.3462	505.55124
	4740	505.15005	-94.305115	599.45517	310.82517	19616.531	7259.3462	505.15005
	4750	506.08903	-62.359909	568.44894	294.74804	19716.561	7259.3462	506.08903
	4760	506.22959	-40.425782	546.65537	283.4478	19814.343	7259.3462	506.22959
	4770	505.87502	-54.118919	559.99394	290.36402	19814.753	7259.3462	505.87502
	4780	505.94139	-69.529551	575.47094	298.38904	19937.104	7259.3462	505.94139
	4790	506.011	-45.913849	551.92485	286.18009	20195.03	7259.3462	506.011
	4800	505.49946	-83.209893	588.70935	305.25333	20614.127	7259.3462	505.49946
	4810	505.47833	-80.119618	585.59795	303.64002	20162.332	7259.3462	505.47833
	4820	505.92492	-52.97094	558.89586	289.79465	20052.134	7259.3462	505.92492
	4830	505.91775	-72.43633	578.35408	299.88398	20022.963	7259.3462	505.91775
	4840	506.19339	-32.937889	539.13128	279.54646	19979.899	7259.3462	506.19339
	4850	505.58574	-70.282685	575.86842	298.59514	20386.47	7259.3462	505.58574
	4860	505.62971	-75.692301	581.32201	301.4229	20220.77	7259.3462	505.62971
	4870	505.93688	-57.045811	562.98269	291.91373	19821.89	7259.3462	505.93688
	4880	505.32172	-86.389698	591.71141	306.80993	19724.862	7259.3462	505.32172
	4890	506.46202	-43.227675	549.68969	285.02114	19345.046	7259.3462	506.46202
	4900	505.54258	-77.516368	583.05895	302.32352	19348.131	7259.3462	505.54258
	4910	505.63738	-81.042201	586.67958	304.20087	18927.274	7259.3462	505.63738
	4920	506.15694	-51.564442	557.72138	289.18567	18481.498	7259.3462	506.15694
	4930	505.61196	-84.876414	590.48838	306.17578	18960.748	7259.3462	505.61196
	4940	505.81317	-53.824191	559.63736	290.17913	18811.344	7259.3462	505.81317
	4950	505.74657	-60.715652	566.46223	293.71791	18944.345	7259.3462	505.74657
	4960	506.29904	-48.517684	554.81672	287.67957	19148.42	7259.3462	506.29904
	4970	505.8312	-51.847914	557.67911	289.16375	19319.9	7259.3462	505.8312
	4980	505.51963	-88.790095	594.30972	308.15719	19520.973	7259.3462	505.51963
	4990	505.46263	-81.499814	586.96244	304.34753	19178.281	7259.3462	505.46263
	5000	506.31384	-74.113486	580.42733	300.95899	18985.367	7259.3462	506.31384
	5010	505.61224	-66.544009	572.15625	296.67033	19250.194	7259.3462	505.61224
	5020	505.92544	-62.064638	567.99007	294.51012	19202.557	7259.3462	505.92544
	5030	506.14568	-73.19684	579.34252	300.3965	19296.301	7259.3462	506.14568
	5040	505.27542	-80.9535	586.22892	303.96719	19138.584	7259.3462	505.27542
	5050	505.69363	-95.745511	601.43914	311.85389	19127.878	7259.3462	505.69363
	5060	505.72808	-83.53967	589.26775	305.54286	19016.918	7259.3462	505.72808
	5070	506.02898	-57.815728	563.84471	292.36069	18619.444	7259.3462	506.02898
	5080	505.7468	-75.876263	581.62306	301.579	18902.236	7259.3462	505.7468
	5090	505.96017	-54.05318	560.01335	290.37409	18752.058	7259.3462	505.96017
	5100	506.17722	-66.065505	572.24272	296.71517	18849.642	7259.3462	506.17722
	5110	505.07942	-107.9849	613.06432	317.88169	19022.388	7259.3462	505.07942
	5120	505.5026	-76.805644	582.30824	301.93427	18608.772	7259.3462	505.5026
	5130	506.45557	-52.699915	559.15548	289.92927	18498.595	7259.3462	506.45557
	5140	506.05171	-52.146495	558.19821	289.43291	18445.054	7259.3462	506.05171
	5150	505.81349	-57.584163	563.39766	292.12889	18602.265	7259.3462	505.81349
	5160	505.55806	-64.971323	570.52938	295.82678	19169.714	7259.3462	505.55806
	5170	506.31117	-35.827955	542.13913	281.10607	19091.132	7259.3462	506.31117
	5180	505.74165	-56.691703	562.43335	291.62889	19570.616	7259.3462	505.74165
	5190	505.43244	-66.422579	571.85502	296.51414	19091.638	7259.3462	505.43244
	5200	506.31452	-44.099579	550.4141	285.39675	19021.216	7259.3462	506.31452
	5210	505.76678	-76.492205	582.25899	301.90873	19151.759	7259.3462	505.76678
	5220	505.74027	-72.261739	578.00201	299.70144	19251.911	7259.3462	505.74027
	5230	505.31126	-85.694522	591.00578	306.44405	19442.901	7259.3462	505.31126
	5240	506.24123	-72.783973	579.0252	300.23197	19111.304	7259.3462	506.24123
	5250	506.05861	-59.078994	565.13761	293.03108	19126.33	7259.3462	506.05861
	5260	505.60906	-92.486909	598.09596	310.12041	19263.422	7259.3462	505.60906
	5270	505.8815	-83.045672	588.92717	305.36627	19260.236	7259.3462	505.8815
	5280	505.97239	-82.076808	588.0492	304.91103	19217.509	7259.3462	505.97239
	5290	505.87331	-83.035116	588.90842	305.35655	19697.498	7259.3462	505.87331
	5300	505.46847	-77.97868	583.44715	302.52481	19677.22	7259.3462	505.46847
	5310	506.09262	-75.315551	581.40817	301.46757	19775.927	7259.3462	506.09262
	5320	505.98944	-72.326442	578.31588	299.86418	19830.516	7259.3462	505.98944
	5330	505.66725	-69.815694	575.48295	298.39527	20301.218	7259.3462	505.66725
	5340	505.73346	-72.228738	577.9622	299.68079	20285.078	7259.3462	505.73346
	5350	505.92986	-84.288828	590.21868	306.03594	20266.954	7259.3462	505.92986
	5360	505.71542	-79.974997	585.69042	303.68797	20255.572	7259.3462	505.71542
	5370	505.60881	-79.924776	585.53359	303.60665	19895.448	7259.3462	505.60881
	5380	506.22858	-76.466957	582.69554	302.13509	19601.428	7259.3462	506.22858
	5390	506.10548	-63.837301	569.94278	295.52262	19378.327	7259.3462	506.10548
	5400	505.97671	-79.686218	585.66292	303.67372	19474.279	7259.3462	505.97671
	5410	505.40922	-96.288224	601.69745	311.98782	19786.503	7259.3462	505.40922
	5420	506.01438	-63.929531	569.94391	295.52321	19919.071	7259.3462	506.01438
	5430	505.83242	-73.618739	579.45116	300.45283	20322.948	7259.3462	505.83242
	5440	505.92683	-47.565231	553.49206	286.99271	20245.441	7259.3462	505.92683
	5450	506.20515	-49.888417	556.09356	288.34162	20307.808	7259.3462	506.20515
	5460	506.05372	-64.563365	570.61709	295.87226	20370.432	7259.3462	506.05372
	5470	505.62604	-63.693348	569.31939	295.19938	20134.281	7259.3462	505.62604
	5480	505.82798	-81.736057	587.56404	304.65947	20018.829	7259.3462	505.82798
	5490	505.77457	-71.078916	576.85349	299.10591	19907.584	7259.3462	505.77457
	5500	505.86549	-66.936867	572.80235	297.00535	19877.904	7259.3462	505.86549
	5510	505.57307	-88.415034	593.9881	307.99043	19522.723	7259.3462	505.57307
	5520	505.98514	-60.589911	566.57505	293.77641	19279.42	7259.3462	505.98514
	5530	506.54981	-47.576003	554.12582	287.32132	19585.206	7259.3462	506.54981
	5540	505.45076	-83.476507	588.92727	305.36632	20342.476	7259.3462	505.45076
	5550	505.90715	-62.29302	568.20017	294.61906	20754.867	7259.3462	505.90715
	5560	505.80527	-77.231137	583.03641	302.31183	20601.467	7259.3462	505.80527
	5570	506.03054	-79.389319	585.41986	303.54768	20659.897	7259.3462	506.03054
	5580	505.56795	-81.863985	587.43193	304.59097	21073.323	7259.3462	505.56795
	5590	505.58563	-80.908964	586.4946	304.10495	20854.548	7259.3462	505.58563
	5600	506.34326	-61.766086	568.10935	294.57196	20493.368	7259.3462	506.34326
	5610	505.75487	-71.528786	577.28366	299.32896	20391.332	7259.3462	505.75487
	5620	505.94179	-76.005171	581.94696	301.74694	20297.229	7259.3462	505.94179
	5630	505.94012	-63.388706	569.32882	295.20428	20088.456	7259.3462	505.94012
	5640	506.03341	-67.866321	573.89973	297.57435	19978.87	7259.3462	506.03341
	5650	505.61708	-76.769789	582.38687	301.97504	20071.968	7259.3462	505.61708
	5660	505.95904	-68.516892	574.47594	297.87312	19986.905	7259.3462	505.95904
	5670	505.90888	-75.653407	581.56229	301.54749	19964.953	7259.3462	505.90888
	5680	505.45279	-81.085725	586.53851	304.12772	19457.676	7259.3462	505.45279
	5690	505.98518	-65.987228	571.97241	296.57501	19332.399	7259.3462	505.98518
	5700	506.25969	-46.820109	553.0798	286.77895	19445.713	7259.3462	506.25969
	5710	506.09584	-37.478151	543.57399	281.85006	19851.528	7259.3462	506.09584
	5720	505.25708	-51.183253	556.44033	288.52143	20174.785	7259.3462	505.25708
	5730	505.76455	-71.937018	577.70157	299.54565	19904.184	7259.3462	505.76455
	5740	505.86515	-64.467393	570.33254	295.72472	19262.278	7259.3462	505.86515
	5750	505.71959	-68.450311	574.1699	297.71444	19330.392	7259.3462	505.71959
	5760	505.46163	-79.018933	584.48056	303.06064	19891.159	7259.3462	505.46163
	5770	506.16557	-37.974111	544.13968	282.14338	20306.529	7259.3462	506.16557
	5780	506.17923	-57.363258	563.54249	292.20399	20472.543	7259.3462	506.17923
	5790	505.85452	-57.468467	563.32299	292.09017	20501.577	7259.3462	505.85452
	5800	505.30566	-86.575627	591.88128	306.89802	20878.921	7259.3462	505.30566
	5810	505.61659	-82.281644	587.89823	304.83275	20816.621	7259.3462	505.61659
	5820	505.45323	-71.113015	576.56624	298.95697	20717.335	7259.3462	505.45323
	5830	506.1373	-61.754778	567.89208	294.4593	20733.133	7259.3462	506.1373
	5840	505.97907	-45.012411	550.99148	285.69613	20553.318	7259.3462	505.97907
	5850	505.71314	-56.920515	562.63366	291.73275	20476.49	7259.3462	505.71314
	5860	505.83564	-58.513604	564.34924	292.6223	20296.513	7259.3462	505.83564
	5870	505.66232	-69.737076	575.3994	298.35195	19908.017	7259.3462	505.66232
	5880	506.22923	-62.802455	569.03169	295.05021	19503.011	7259.3462	506.22923
	5890	505.403	-74.039229	579.44223	300.44821	19488.277	7259.3462	505.403
	5900	505.60783	-66.794904	572.40273	296.79814	19674.1	7259.3462	505.60783
	5910	506.43148	-44.844215	551.27569	285.8435	19500.637	7259.3462	506.43148
	5920	505.56037	-72.402919	577.96329	299.68136	19896.467	7259.3462	505.56037
	5930	505.92688	-69.117044	575.04392	298.16763	19893.059	7259.3462	505.92688
	5940	505.41833	-83.685866	589.1042	305.45806	20083.29	7259.3462	505.41833
	5950	506.59868	-58.148542	564.74722	292.82866	19850.74	7259.3462	506.59868
	5960	505.68273	-70.083868	575.7666	298.54235	19568.186	7259.3462	505.68273
	5970	505.48648	-91.832142	597.31862	309.71734	19623.816	7259.3462	505.48648
	5980	505.89975	-73.38071	579.28046	300.36433	19485.912	7259.3462	505.89975
	5990	505.58467	-76.206656	581.79133	301.66624	19521.665	7259.3462	505.58467
	6000	506.16138	-57.568526	563.72991	292.30117	19320.044	7259.3462	506.16138
	6010	505.28163	-60.492065	565.77369	293.3609	19007.219	7259.3462	505.28163
	6020	506.70236	-40.448779	547.15114	283.70486	18592.212	7259.3462	506.70236
	6030	505.9533	-46.037013	551.99031	286.21404	18361.095	7259.3462	505.9533
	6040	505.7912	-55.760328	561.55153	291.17165	18338.905	7259.3462	505.7912
	6050	505.72364	-64.783299	570.50694	295.81514	18265.127	7259.3462	505.72364
	6060	505.21382	-75.554887	580.76871	301.136	18182.42	7259.3462	505.21382
	6070	506.26367	-48.620024	554.88369	287.71429	17880.707	7259.3462	506.26367
	6080	505.53183	-66.97547	572.5073	296.85236	18108.895	7259.3462	505.53183
	6090	506.18904	-54.254745	560.44378	290.59727	18196.3	7259.3462	506.18904
	6100	505.88297	-54.049564	559.93253	290.33218	18664.067	7259.3462	505.88297
	6110	505.75801	-82.519781	588.27779	305.02956	19390.932	7259.3462	505.75801
	6120	505.89272	-76.26567	582.15839	301.85657	19921.519	7259.3462	505.89272
	6130	505.49319	-90.717578	596.21076	309.14291	20412.155	7259.3462	505.49319
	6140	505.49538	-89.724594	595.21997	308.62917	20732.243	7259.3462	505.49538
	6150	505.84496	-62.778437	568.6234	294.8385	21297.434	7259.3462	505.84496
	6160	506.16557	-53.358919	559.52449	290.1206	21075.208	7259.3462	506.16557
	6170	506.09172	-65.464481	571.55621	296.3592	20754.165	7259.3462	506.09172
	6180	505.33054	-90.162977	595.49352	308.771	20470.93	7259.3462	505.33054
	6190	505.4307	-92.058605	597.48931	309.80585	20767.621	7259.3462	505.4307
	6200	505.81741	-71.278201	577.09561	299.23146	20846.602	7259.3462	505.81741
	6210	506.09548	-51.338713	557.43419	289.03676	20358.458	7259.3462	506.09548
	6220	505.81262	-59.684824	565.49745	293.21766	20109.272	7259.3462	505.81262
	6230	505.67135	-76.372988	582.04434	301.79744	20022.037	7259.3462	505.67135
	6240	506.13966	-58.896301	565.03596	292.97837	19609.953	7259.3462	506.13966
	6250	505.60623	-73.201025	578.80726	300.11896	19744.354	7259.3462	505.60623
	6260	505.76076	-70.851046	576.61181	298.9806	19629.818	7259.3462	505.76076
	6270	506.07808	-51.519727	557.59781	289.1216	19654.681	7259.3462	506.07808
	6280	505.67175	-60.625802	566.29756	293.63252	19787.928	7259.3462	505.67175
	6290	505.96579	-48.577891	554.54368	287.53799	19637.265	7259.3462	505.96579
	6300	505.50918	-68.43248	573.94166	297.59609	19736.742	7259.3462	505.50918
	6310	506.10888	-57.93323	564.04211	292.46305	19197.806	7259.3462	506.10888
	6320	505.59599	-66.724787	572.32078	296.75564	18748.854	7259.3462	505.59599
	6330	505.45794	-71.969039	577.42698	299.40327	18715.837	7259.3462	505.45794
	6340	506.64255	-29.280699	535.92325	277.88306	18516.849	7259.3462	506.64255
	6350	505.49019	-65.927084	571.41727	296.28716	18779.749	7259.3462	505.49019
	6360	505.58121	-84.042464	589.62367	305.72741	18516.865	7259.3462	505.58121
	6370	505.46392	-76.460811	581.92473	301.73541	18535.843	7259.3462	505.46392
	6380	506.28583	-67.921969	574.2078	297.73409	18452.181	7259.3462	506.28583
	6390	505.78	-76.593841	582.37384	301.96828	18747.818	7259.3462	505.78
	6400	505.78589	-83.186664	588.97255	305.3898	19095.493	7259.3462	505.78589
	6410	506.37748	-71.53857	577.91605	299.65686	19230.153	7259.3462	506.37748
	6420	505.29975	-109.42456	614.72431	318.74242	19646.695	7259.3462	505.29975
	6430	505.8875	-100.47226	606.35976	314.40529	20076.731	7259.3462	505.8875
	6440	505.32487	-94.38676	599.71163	310.95815	20942.417	7259.3462	505.32487
	6450	506.21227	-73.169074	579.38134	300.41663	20979.83	7259.3462	506.21227
	6460	505.99336	-49.491656	555.48502	288.02609	20932.572	7259.3462	505.99336
	6470	505.41717	-81.120544	586.53772	304.12731	21170.176	7259.3462	505.41717
	6480	506.5756	-46.830494	553.4061	286.94814	20944.371	7259.3462	506.5756
	6490	504.9682	-95.958811	600.92701	311.58834	21015.357	7259.3462	504.9682
	6500	505.73197	-73.759239	579.49121	300.4736	20553.692	7259.3462	505.73197
	6510	505.89872	-53.328728	559.22745	289.96658	19761.884	7259.3462	505.89872
	6520	506.02816	-73.023693	579.05186	300.24579	19398.935	7259.3462	506.02816
	6530	505.78364	-57.565362	563.349	292.10366	19302.682	7259.3462	505.78364
	6540	505.13089	-84.197114	589.328	305.5741	19072.379	7259.3462	505.13089
	6550	506.67965	-47.673015	554.35266	287.43895	18542.228	7259.3462	506.67965
	6560	505.70068	-59.064345	564.76503	292.83789	18420.183	7259.3462	505.70068
	6570	505.35085	-82.801949	588.1528	304.96475	18528.644	7259.3462	505.35085
	6580	506.06132	-53.519806	559.58112	290.14997	18402.469	7259.3462	506.06132
	6590	506.03731	-68.020905	574.05822	297.65653	18509.684	7259.3462	506.03731
	6600	505.96943	-82.304971	588.2744	305.0278	18394.191	7259.3462	505.96943
	6610	504.94092	-99.427493	604.36841	313.37275	18688.596	7259.3462	504.94092
	6620	506.10175	-78.797284	584.89903	303.27763	19062.66	7259.3462	506.10175
	6630	506.34092	-60.502249	566.84317	293.91543	19319.999	7259.3462	506.34092
	6640	505.205	-85.102362	590.30736	306.08192	19686.81	7259.3462	505.205
	6650	505.94761	-65.112196	571.05981	296.10181	19440.981	7259.3462	505.94761
	6660	506.26007	-51.619998	557.88007	289.26795	19427.259	7259.3462	506.26007
	6670	505.71784	-70.9833	576.70114	299.02692	19765.116	7259.3462	505.71784
	6680	505.57596	-67.726565	573.30252	297.26469	19812.275	7259.3462	505.57596
	6690	505.50258	-75.802065	581.30465	301.41389	19870.003	7259.3462	505.50258
	6700	506.72957	-35.211109	541.94067	281.00317	19425.199	7259.3462	506.72957
	6710	505.74953	-56.946721	562.69626	291.76521	18833.72	7259.3462	505.74953
	6720	505.43009	-80.657671	586.08776	303.894	19055.81	7259.3462	505.43009
	6730	506.48237	-66.541615	573.02399	297.12027	18862.139	7259.3462	506.48237
	6740	505.10188	-109.06457	614.16645	318.45316	18888.163	7259.3462	505.10188
	6750	505.83856	-85.912017	591.75058	306.83024	19009.88	7259.3462	505.83856
	6760	505.64575	-79.621707	585.26745	303.46866	19190.372	7259.3462	505.64575
	6770	506.22097	-68.157542	574.37851	297.82261	19393.351	7259.3462	506.22097
	6780	506.02154	-66.520204	572.54175	296.87022	19960.026	7259.3462	506.02154
	6790	505.35651	-93.874949	599.23145	310.70917	20043.167	7259.3462	505.35651
	6800	506.37723	-76.348169	582.7254	302.15057	19664.115	7259.3462	506.37723
	6810	505.1793	-115.61458	620.79388	321.88957	19767.5	7259.3462	505.1793
	6820	505.67863	-97.750006	603.42863	312.88546	20002.418	7259.3462	505.67863
	6830	506.1395	-78.870814	585.01031	303.33533	20456.473	7259.3462	506.1395
	6840	506.29573	-74.206852	580.50259	300.99801	20684.874	7259.3462	506.29573
	6850	505.29812	-88.796413	594.09453	308.04561	20755.574	7259.3462	505.29812
	6860	505.53818	-102.91326	608.45143	315.48985	20361.209	7259.3462	505.53818
	6870	506.21669	-73.763809	579.9805	300.7273	19952.164	7259.3462	506.21669
	6880	506.24384	-66.496077	572.73992	296.97297	19968.211	7259.3462	506.24384
	6890	505.31419	-85.289866	590.60405	306.23575	19778.241	7259.3462	505.31419
	6900	505.87358	-57.826396	563.69997	292.28565	19658.073	7259.3462	505.87358
	6910	506.11603	-60.82262	566.93865	293.96494	19571.064	7259.3462	506.11603
	6920	505.81796	-66.536547	572.35451	296.77313	19334.695	7259.3462	505.81796
	6930	505.39718	-88.339722	593.7369	307.86018	19118.192	7259.3462	505.39718
	6940	505.93961	-72.353699	578.29331	299.85248	19072.443	7259.3462	505.93961
	6950	506.12907	-64.362117	570.49119	295.80698	18776.02	7259.3462	506.12907
	6960	505.8035	-84.67469	590.47819	306.17049	18933.914	7259.3462	505.8035
	6970	505.85891	-81.476588	587.3355	304.54097	19671.487	7259.3462	505.85891
	6980	505.60988	-100.27308	605.88297	314.15807	20293.854	7259.3462	505.60988
	6990	505.9447	-81.379692	587.32439	304.53521	20221.7	7259.3462	505.9447
	7000	505.26945	-92.910384	598.17984	310.1639	20794.643	7259.3462	505.26945
	7010	506.44707	-58.048692	564.49576	292.69827	21117.992	7259.3462	506.44707
	7020	506.04774	-40.59731	546.64505	283.44245	21244.433	7259.3462	506.04774
	7030	505.49473	-101.83945	607.33418	314.91054	21128.127	7259.3462	505.49473
	7040	505.80988	-81.635317	587.4452	304.59785	20222.485	7259.3462	505.80988
	7050	505.90428	-82.333865	588.23815	305.009	19965.911	7259.3462	505.90428
	7060	505.97254	-87.772437	593.74497	307.86436	19780.238	7259.3462	505.97254
	7070	505.36766	-76.134335	581.502	301.51622	19606.086	7259.3462	505.36766
	7080	505.9169	-94.427654	600.34455	311.28633	19231.419	7259.3462	505.9169
	7090	506.3177	-67.132582	573.45028	297.3413	18760.491	7259.3462	506.3177
	7100	506.00442	-74.454704	580.45912	300.97548	18619.377	7259.3462	506.00442
	7110	505.36964	-98.360195	603.72984	313.04164	18799.349	7259.3462	505.36964
	7120	506.00334	-71.289215	577.29256	299.33358	18756.714	7259.3462	506.00334
	7130	506.14724	-84.482163	590.62941	306.2489	18985.635	7259.3462	506.14724
	7140	505.69358	-86.252449	591.94603	306.93159	18797.703	7259.3462	505.69358
	7150	506.02297	-77.971387	583.99436	302.80854	18694.513	7259.3462	506.02297
	7160	505.71397	-98.338523	604.05249	313.20894	19210.93	7259.3462	505.71397
	7170	505.97692	-83.99538	589.9723	305.90818	19627.786	7259.3462	505.97692
	7180	505.37822	-98.370753	603.74897	313.05156	20240.261	7259.3462	505.37822
	7190	506.14334	-76.78523	582.92857	302.25592	20150.418	7259.3462	506.14334
	7200	505.72604	-67.072076	572.79812	297.00315	20206.321	7259.3462	505.72604
	7210	505.69868	-76.876159	582.57484	302.0725	20629.19	7259.3462	505.69868
	7220	506.29507	-58.303951	564.59902	292.75181	20354.572	7259.3462	506.29507
	7230	506.04478	-70.19111	576.23589	298.78568	20074.398	7259.3462	506.04478
	7240	505.77486	-79.281187	585.05604	303.35904	20145.132	7259.3462	505.77486
	7250	505.09259	-94.822409	599.91499	311.0636	20268.328	7259.3462	505.09259
	7260	506.31258	-66.469594	572.78218	296.99489	20604.124	7259.3462	506.31258
	7270	506.08673	-64.299828	570.38656	295.75273	20544.12	7259.3462	506.08673
	7280	505.7431	-82.698265	588.44137	305.11437	20576.069	7259.3462	505.7431
	7290	505.50398	-84.617529	590.12151	305.98555	20478.143	7259.3462	505.50398
	7300	506.16897	-70.311322	576.48029	298.9124	20468.285	7259.3462	506.16897
	7310	505.72047	-69.355704	575.07617	298.18435	21059.149	7259.3462	505.72047
	7320	505.66284	-78.040813	583.70365	302.65781	20978.959	7259.3462	505.66284
	7330	505.61843	-80.102171	585.72061	303.70362	20374.946	7259.3462	505.61843
	7340	506.08083	-68.050615	574.13145	297.6945	20405.718	7259.3462	506.08083
	7350	505.86095	-76.970697	582.83164	302.20566	20412.892	7259.3462	505.86095
	7360	505.51345	-85.010297	590.52375	306.19411	20474.792	7259.3462	505.51345
	7370	506.35982	-66.295089	572.65491	296.92889	20281.886	7259.3462	506.35982
	7380	505.43698	-101.04581	606.48279	314.46908	19942.702	7259.3462	505.43698
	7390	505.81836	-97.946627	603.76498	313.05987	19948.81	7259.3462	505.81836
	7400	505.62157	-93.711339	599.33291	310.76178	19777.502	7259.3462	505.62157
	7410	505.83664	-95.097486	600.93413	311.59203	20017.676	7259.3462	505.83664
	7420	505.66797	-84.05058	589.71855	305.77661	19971.693	7259.3462	505.66797
	7430	505.98398	-68.770062	574.75404	298.01732	19854.95	7259.3462	505.98398
	7440	506.3893	-60.067249	566.45655	293.71497	20148.031	7259.3462	506.3893
	7450	505.29795	-88.477626	593.77558	307.88023	20277.32	7259.3462	505.29795
	7460	505.88808	-85.76136	591.64944	306.7778	19928.048	7259.3462	505.88808
	7470	505.63137	-88.776095	594.40746	308.20787	19626.849	7259.3462	505.63137
	7480	506.35257	-70.645283	576.99785	299.18077	19386.743	7259.3462	506.35257
	7490	505.59251	-77.836962	583.42947	302.51564	19646.087	7259.3462	505.59251
	7500	505.56239	-80.903401	586.46579	304.09001	19614.875	7259.3462	505.56239
	7510	506.32612	-70.267753	576.59387	298.9713	19354.918	7259.3462	506.32612
	7520	505.98163	-71.346887	577.32852	299.35222	19458.97	7259.3462	505.98163
	7530	506.00306	-82.448453	588.45151	305.11963	19481.481	7259.3462	506.00306
	7540	505.43599	-92.520811	597.9568	310.04825	19541.347	7259.3462	505.43599
	7550	506.05869	-88.372449	594.43114	308.22015	19542.23	7259.3462	506.05869
	7560	506.18394	-85.436351	591.62029	306.76269	19666.962	7259.3462	506.18394
	7570	505.52872	-92.04178	597.5705	309.84795	19822.708	7259.3462	505.52872
	7580	505.8895	-89.558826	595.44833	308.74757	19477.846	7259.3462	505.8895
	7590	505.89996	-70.57717	576.47713	298.91076	19780.478	7259.3462	505.89996
	7600	506.35966	-65.854095	572.21375	296.70015	20308.55	7259.3462	506.35966
	7610	505.72442	-75.15632	580.88074	301.19409	20251.601	7259.3462	505.72442
	7620	505.83759	-86.228262	592.06585	306.99372	20138.929	7259.3462	505.83759
	7630	505.62217	-90.813488	596.43565	309.25951	20341.546	7259.3462	505.62217
	7640	505.84187	-76.003904	581.84577	301.69447	20644.952	7259.3462	505.84187
	7650	505.90522	-68.78522	574.69044	297.98434	20727.191	7259.3462	505.90522
	7660	506.26603	-50.296679	556.56271	288.58488	20823.42	7259.3462	506.26603
	7670	505.87908	-71.724349	577.60343	299.49477	20921.262	7259.3462	505.87908
	7680	505.40554	-87.817857	593.22339	307.59392	20919.769	7259.3462	505.40554
	7690	505.95264	-75.522328	581.47496	301.50221	20749.775	7259.3462	505.95264
	7700	505.9848	-76.744653	582.72945	302.15267	20500.714	7259.3462	505.9848
	7710	505.84137	-78.686981	584.52835	303.08543	20422.479	7259.3462	505.84137
	7720	505.95506	-77.400421	583.35549	302.47728	20661.698	7259.3462	505.95506
	7730	506.04871	-81.894099	587.94281	304.85586	20602.922	7259.3462	506.04871
	7740	505.7861	-89.031197	594.81729	308.42037	20537.116	7259.3462	505.7861
	7750	506.03079	-81.94334	587.97413	304.87211	20267.648	7259.3462	506.03079
	7760	505.57822	-87.542877	593.1211	307.54088	20277.003	7259.3462	505.57822
	7770	506.23496	-70.918009	577.15296	299.26119	19856.352	7259.3462	506.23496
	7780	505.68249	-73.663495	579.34598	300.3983	19600.698	7259.3462	505.68249
	7790	506.37363	-63.923584	570.29721	295.7064	19211.748	7259.3462	506.37363
	7800	505.83077	-80.105757	585.93653	303.81558	18867.904	7259.3462	505.83077
	7810	505.4903	-75.800267	581.29057	301.40659	18998.195	7259.3462	505.4903
	7820	506.07151	-73.956829	580.02833	300.75211	18989.223	7259.3462	506.07151
	7830	505.6433	-80.031816	585.67512	303.68004	18997.283	7259.3462	505.6433
	7840	506.08176	-54.903651	560.98541	290.87811	18972.935	7259.3462	506.08176
	7850	505.65196	-70.13036	575.78232	298.5505	19357.558	7259.3462	505.65196
	7860	505.93333	-63.171545	569.10488	295.08816	19257.106	7259.3462	505.93333
	7870	506.37479	-62.87461	569.2494	295.1631	19389.737	7259.3462	506.37479
	7880	505.20446	-101.78973	606.99419	314.73425	20252.238	7259.3462	505.20446
	7890	505.45564	-74.253672	579.70931	300.58669	20706.396	7259.3462	505.45564
	7900	506.27787	-58.671932	564.94981	292.9337	20936.833	7259.3462	506.27787
	7910	506.07065	-61.701324	567.77197	294.39703	21120.402	7259.3462	506.07065
	7920	505.76235	-70.345509	576.10786	298.71929	21312.44	7259.3462	505.76235
	7930	505.59377	-87.190711	592.78449	307.36634	21683.725	7259.3462	505.59377
	7940	505.86623	-78.380749	584.24698	302.93953	21465.758	7259.3462	505.86623
	7950	506.07135	-68.507035	574.57838	297.92624	21458.986	7259.3462	506.07135
	7960	505.52566	-75.200321	580.72598	301.11385	21328.389	7259.3462	505.52566
	7970	505.96563	-71.246707	577.21233	299.29198	20873.108	7259.3462	505.96563
	7980	506.27649	-69.477606	575.7541	298.53586	20359.704	7259.3462	506.27649
	7990	505.52357	-96.705325	602.2289	312.26339	20068.193	7259.3462	505.52357
	8000	505.74573	-104.81685	610.56258	316.58451	19605.622	7259.3462	505.74573
	8010	505.84554	-90.112404	595.95794	309.01181	19296.716	7259.3462	505.84554
	8020	505.95588	-86.673807	592.62969	307.28607	19083.479	7259.3462	505.95588
	8030	505.99907	-72.397371	578.39644	299.90595	19197.388	7259.3462	505.99907
	8040	505.7406	-74.361158	580.10176	300.79018	19205.025	7259.3462	505.7406
	8050	506.2581	-65.132044	571.39015	296.2731	19579.683	7259.3462	506.2581
	8060	505.33656	-85.777468	591.11403	306.50018	19575.749	7259.3462	505.33656
	8070	505.71943	-73.511663	579.23109	300.33873	19327.394	7259.3462	505.71943
	8080	506.3263	-56.284096	562.6104	291.72069	19433.761	7259.3462	506.3263
	8090	505.59063	-66.559391	572.15002	296.6671	19475.07	7259.3462	505.59063
	8100	506.17849	-53.186916	559.36541	290.03812	19427.777	7259.3462	506.17849
	8110	505.61505	-67.724018	573.33907	297.28364	19378.697	7259.3462	505.61505
	8120	505.93191	-72.444746	578.37665	299.89569	19126.457	7259.3462	505.93191
	8130	505.78465	-74.12326	579.90791	300.68967	19417.206	7259.3462	505.78465
	8140	505.43192	-73.6829	579.11482	300.27844	19738.537	7259.3462	505.43192
	8150	506.12709	-55.034289	561.16138	290.96935	19418.787	7259.3462	506.12709
	8160	506.06928	-46.875873	552.94515	286.70913	19311.125	7259.3462	506.06928
	8170	505.91882	-62.436419	568.35524	294.69946	19439.44	7259.3462	505.91882
	8180	505.40736	-73.46728	578.87464	300.1539	19576.664	7259.3462	505.40736
	8190	505.60137	-59.042111	564.64348	292.77487	19818.142	7259.3462	505.60137
	8200	506.03498	-51.461188	557.49617	289.06889	19485.627	7259.3462	506.03498
	8210	505.8551	-56.565252	562.42036	291.62215	19582.395	7259.3462	505.8551
	8220	505.972	-55.371706	561.34371	291.06389	19625.434	7259.3462	505.972
	8230	505.89482	-54.216341	560.11117	290.4248	19841.349	7259.3462	505.89482
	8240	505.81957	-65.668733	571.4883	296.32399	20407.502	7259.3462	505.81957
	8250	506.09259	-56.124644	562.21724	291.51683	20168.361	7259.3462	506.09259
	8260	505.42202	-82.234256	587.65627	304.70729	20220.371	7259.3462	505.42202
	8270	505.5454	-83.829758	589.37516	305.59856	20328.479	7259.3462	505.5454
	8280	506.0761	-62.224552	568.30065	294.67115	20109.481	7259.3462	506.0761
	8290	505.9777	-61.369758	567.34746	294.17691	20178.579	7259.3462	505.9777
	8300	505.83363	-56.574327	562.40796	291.61572	20062.016	7259.3462	505.83363
	8310	505.7304	-69.815139	575.54554	298.42772	20345.377	7259.3462	505.7304
	8320	505.68299	-64.447576	570.13057	295.61999	20198.663	7259.3462	505.68299
	8330	506.26317	-56.61785	562.88102	291.86101	19806.034	7259.3462	506.26317
	8340	505.57819	-87.301987	592.88017	307.41595	19640.853	7259.3462	505.57819
	8350	506.02678	-76.274677	582.30145	301.93075	19295.075	7259.3462	506.02678
	8360	505.48571	-90.844553	596.33026	309.20487	19681.815	7259.3462	505.48571
	8370	506.0189	-66.547554	572.56646	296.88303	19834.907	7259.3462	506.0189
	8380	505.73951	-66.806767	572.54627	296.87257	19643.198	7259.3462	505.73951
	8390	505.76039	-72.251754	578.01215	299.70669	19837.88	7259.3462	505.76039
	8400	506.24038	-41.970866	548.21125	284.25454	19738.291	7259.3462	506.24038
	8410	505.24216	-69.540408	574.78257	298.03211	19961.82	7259.3462	505.24216
	8420	506.48945	-51.657611	558.14706	289.40639	19968.081	7259.3462	506.48945
	8430	505.30443	-76.532645	581.83708	301.68997	20168.445	7259.3462	505.30443
	8440	505.84708	-67.952394	573.79947	297.52236	19901.772	7259.3462	505.84708
	8450	505.72564	-61.308327	567.03397	294.01437	19716.6	7259.3462	505.72564
	8460	506.32189	-67.557376	573.87926	297.56374	19451.864	7259.3462	506.32189
	8470	506.06922	-49.128421	555.19764	287.87708	19492.124	7259.3462	506.06922
	8480	505.29948	-85.462562	590.76204	306.31767	19689.444	7259.3462	505.29948
	8490	506.08262	-72.527019	578.60964	300.0165	19403.628	7259.3462	506.08262
	8500	505.79735	-69.467122	575.26447	298.28199	19691.546	7259.3462	505.79735
	8510	505.6672	-94.872607	600.53981	311.38757	20086.563	7259.3462	505.6672
	8520	505.62804	-71.551183	577.17922	299.27481	20177.662	7259.3462	505.62804
	8530	506.23514	-63.204176	569.43932	295.26157	19727.916	7259.3462	506.23514
	8540	506.0656	-70.998192	577.06379	299.21496	19879.099	7259.3462	506.0656
	8550	505.46564	-84.140356	589.606	305.71825	19870.806	7259.3462	505.46564
	8560	505.80779	-96.14432	601.95211	312.11987	19909.534	7259.3462	505.80779
	8570	505.87156	-79.071685	584.94325	303.30055	19867.651	7259.3462	505.87156
	8580	505.72919	-76.883322	582.61252	302.09204	19962.301	7259.3462	505.72919
	8590	505.92254	-70.976662	576.8992	299.12961	19804.881	7259.3462	505.92254
	8600	506.2337	-63.573709	569.80741	295.45243	19991.467	7259.3462	506.2337
	8610	505.43235	-87.085953	592.5183	307.22832	20542.577	7259.3462	505.43235
	8620	505.49641	-86.10095	591.59736	306.7508	20302.365	7259.3462	505.49641
	8630	506.21751	-63.135866	569.35337	295.217	20129.688	7259.3462	506.21751
	8640	506.35563	-56.767971	563.1236	291.98679	20255.024	7259.3462	506.35563
	8650	505.31008	-96.379058	601.68914	311.98351	20642.505	7259.3462	505.31008
	8660	505.41663	-98.43371	603.85034	313.10412	20639.528	7259.3462	505.41663
	8670	506.34635	-76.675128	583.02147	302.30409	20079.608	7259.3462	506.34635
	8680	506.1993	-83.708406	589.9077	305.87469	20033.813	7259.3462	506.1993
	8690	505.3772	-94.017728	599.39493	310.79393	19762.935	7259.3462	505.3772
	8700	505.68252	-87.949093	593.63161	307.80558	19931.505	7259.3462	505.68252
	8710	506.43311	-63.840619	570.27373	295.69422	20092.63	7259.3462	506.43311
	8720	505.85093	-67.664821	573.51575	297.37525	19599.424	7259.3462	505.85093
	8730	505.69642	-94.627365	600.32379	311.27556	19605.636	7259.3462	505.69642
	8740	505.35255	-74.122043	579.47459	300.46499	19729.597	7259.3462	505.35255
	8750	506.09025	-60.996781	567.08703	294.04188	19727.586	7259.3462	506.09025
	8760	506.08914	-57.891842	563.98098	292.43135	19537.997	7259.3462	506.08914
	8770	506.2408	-39.178493	545.41929	282.80688	19229.481	7259.3462	506.2408
	8780	505.60861	-91.753461	597.36207	309.73987	19572.862	7259.3462	505.60861
	8790	505.16584	-79.72835	584.89419	303.27512	19798.614	7259.3462	505.16584
	8800	506.00547	-65.477376	571.48284	296.32116	19779.069	7259.3462	506.00547
	8810	506.10975	-67.250106	573.35986	297.29442	20031.69	7259.3462	506.10975
	8820	506.34205	-41.865632	548.20768	284.25269	19778.097	7259.3462	506.34205
	8830	505.27678	-99.518181	604.79496	313.59392	19648.102	7259.3462	505.27678
	8840	505.83388	-90.475274	596.30915	309.19392	19695.289	7259.3462	505.83388
	8850	506.28173	-77.035976	583.31771	302.45769	19676.417	7259.3462	506.28173
	8860	505.30132	-88.476826	593.77815	307.88156	19801.927	7259.3462	505.30132
	8870	505.78338	-74.674811	580.45819	300.975	19413.669	7259.3462	505.78338
	8880	505.79734	-78.022413	583.81975	302.71801	19292.346	7259.3462	505.79734
	8890	506.41588	-51.242926	557.65881	289.15322	19297.014	7259.3462	506.41588
	8900	506.0444	-70.713496	576.7579	299.05635	19682.573	7259.3462	506.0444
	8910	505.30939	-86.13388	591.44327	306.6709	19984.39	7259.3462	505.30939
	8920	505.79081	-77.149463	582.94027	302.26199	19936.812	7259.3462	505.79081
	8930	505.67671	-76.048981	581.72569	301.63221	20021.848	7259.3462	505.67671
	8940	505.86145	-69.796463	575.65791	298.48599	19691.483	7259.3462	505.86145
	8950	506.31747	-60.530703	566.84818	293.91803	19603.18	7259.3462	506.31747
	8960	505.65896	-71.746464	577.40543	299.3921	19511.32	7259.3462	505.65896
	8970	505.56632	-92.322964	597.88929	310.01324	19283.14	7259.3462	505.56632
	8980	505.77566	-81.619568	587.39523	304.57194	19474.345	7259.3462	505.77566
	8990	506.02238	-68.090324	574.11271	297.68478	19583.391	7259.3462	506.02238
	9000	505.56719	-86.293356	591.86054	306.88726	19951.285	7259.3462	505.56719
	9010	505.64902	-76.083533	581.73255	301.63577	19621.392	7259.3462	505.64902
	9020	506.14217	-63.156532	569.2987	295.18866	19325.039	7259.3462	506.14217
	9030	506.23336	-69.082523	575.31588	298.30864	19637.562	7259.3462	506.23336
	9040	505.52832	-88.910036	594.43836	308.22389	19874.413	7259.3462	505.52832
	9050	505.26146	-99.904124	605.16558	313.78609	20225.511	7259.3462	505.26146
	9060	506.33857	-67.390308	573.72888	297.48576	19791.993	7259.3462	506.33857
	9070	505.99194	-67.938349	573.93029	297.5902	19777.742	7259.3462	505.99194
	9080	505.81738	-78.193134	584.01052	302.81692	19897.063	7259.3462	505.81738
	9090	505.54401	-78.745613	584.28962	302.96164	20232.559	7259.3462	505.54401
	9100	505.78874	-84.538719	590.32746	306.09234	20328.25	7259.3462	505.78874
	9110	506.13854	-66.816285	572.95482	297.0844	19889.504	7259.3462	506.13854
	9120	505.12367	-78.482007	583.60568	302.60701	19512.318	7259.3462	505.12367
	9130	506.48297	-54.400424	560.88339	290.82521	19430.719	7259.3462	506.48297
	9140	505.98295	-64.570081	570.55303	295.83904	19430.832	7259.3462	505.98295
	9150	505.67049	-71.9763	577.64679	299.51725	19412.516	7259.3462	505.67049
	9160	505.43186	-84.118368	589.55023	305.68933	19478.592	7259.3462	505.43186
	9170	505.37809	-90.738212	596.1163	309.09393	19454.416	7259.3462	505.37809
	9180	506.22311	-66.242476	572.46558	296.83073	19336.878	7259.3462	506.22311
	9190	505.45581	-79.296159	584.75197	303.20138	19567.756	7259.3462	505.45581
	9200	506.24234	-53.693744	559.93609	290.33402	19332.169	7259.3462	506.24234
	9210	505.98738	-56.816252	562.80363	291.82088	18932.746	7259.3462	505.98738
	9220	505.7222	-85.700656	591.42286	306.66031	19248.48	7259.3462	505.7222
	9230	505.48438	-75.939078	581.42346	301.4755	19534.109	7259.3462	505.48438
	9240	505.82776	-73.942422	579.77018	300.61825	19840.628	7259.3462	505.82776
	9250	505.8596	-62.618337	568.47794	294.76308	19492.207	7259.3462	505.8596
	9260	505.67451	-62.340464	568.01498	294.52303	19295.634	7259.3462	505.67451
	9270	506.15801	-63.277718	569.43573	295.25971	19589.438	7259.3462	506.15801
	9280	506.0552	-54.4705	560.5257	290.63975	19906.963	7259.3462	506.0552
	9290	505.83566	-86.954461	592.79012	307.36926	19896.388	7259.3462	505.83566
	9300	505.16534	-89.658379	594.82371	308.4237	19635.099	7259.3462	505.16534
	9310	506.12298	-62.385226	568.50821	294.77878	19146.223	7259.3462	506.12298
	9320	506.45835	-81.958231	588.41658	305.10152	19014.383	7259.3462	506.45835
	9330	505.5792	-80.7816	586.3608	304.03557	18746.938	7259.3462	505.5792
	9340	505.53362	-99.935926	605.46954	313.9437	18789.484	7259.3462	505.53362
	9350	505.99696	-79.199021	585.19598	303.4316	18648.087	7259.3462	505.99696
	9360	506.10267	-67.300578	573.40324	297.31691	18186.984	7259.3462	506.10267
	9370	505.82103	-86.470459	592.29149	307.11071	18405.813	7259.3462	505.82103
	9380	505.70567	-55.173404	560.87908	290.82297	18320.151	7259.3462	505.70567
	9390	506.37687	-65.834315	572.21119	296.69882	18206.591	7259.3462	506.37687
	9400	505.82184	-85.388735	591.21058	306.55025	17796.53	7259.3462	505.82184
	9410	505.25796	-91.233763	596.49172	309.28859	18012.534	7259.3462	505.25796
	9420	506.03633	-86.759825	592.79616	307.37239	18364.09	7259.3462	506.03633
	9430	506.13317	-58.379119	564.51229	292.70684	18534.335	7259.3462	506.13317
	9440	505.93058	-74.307415	580.238	300.86082	19176.783	7259.3462	505.93058
	9450	505.75767	-81.070909	586.82858	304.27813	19153.623	7259.3462	505.75767
	9460	506.41502	-64.527113	570.94213	296.0408	19134.53	7259.3462	506.41502
	9470	505.62847	-97.226918	602.85539	312.58823	19660.775	7259.3462	505.62847
	9480	505.55557	-88.9149	594.47047	308.24054	20064.09	7259.3462	505.55557
	9490	505.82617	-82.035689	587.86186	304.81389	20255.136	7259.3462	505.82617
	9500	506.35096	-71.78682	578.13778	299.77183	20028.518	7259.3462	506.35096
	9510	505.93777	-73.97982	579.91759	300.69469	20140.909	7259.3462	505.93777
	9520	505.34207	-104.05219	609.39426	315.97872	20715.601	7259.3462	505.34207
	9530	506.28363	-70.034883	576.31851	298.82852	21107.848	7259.3462	506.28363
	9540	505.75754	-85.856212	591.61375	306.75929	20785.121	7259.3462	505.75754
	9550	505.68507	-86.013429	591.6985	306.80324	20729.245	7259.3462	505.68507
	9560	505.78318	-83.755581	589.53876	305.68339	20704.722	7259.3462	505.78318
	9570	505.99433	-92.240716	598.23505	310.19252	20603.317	7259.3462	505.99433
	9580	505.85797	-80.805978	586.66395	304.19276	20669.144	7259.3462	505.85797
	9590	505.84444	-88.308826	594.15326	308.07607	20637.131	7259.3462	505.84444
	9600	505.73332	-80.630221	586.36354	304.03699	20384.188	7259.3462	505.73332
	9610	506.27629	-59.507453	565.78375	293.36611	19669.98	7259.3462	506.27629
	9620	505.769	-91.311154	597.08016	309.5937	20059.103	7259.3462	505.769
	9630	505.83068	-75.799481	581.63016	301.58268	19913.413	7259.3462	505.83068
	9640	505.96271	-83.782895	589.7456	305.79064	19902.071	7259.3462	505.96271
	9650	505.21539	-96.298253	601.51365	311.89252	20152.025	7259.3462	505.21539
	9660	505.95768	-68.173083	574.13076	297.69414	19654.935	7259.3462	505.95768
	9670	506.21936	-71.419537	577.6389	299.51316	19441.386	7259.3462	506.21936
	9680	505.97611	-81.898348	587.87445	304.82042	19459.275	7259.3462	505.97611
	9690	505.64481	-84.237265	589.88208	305.8614	19420.965	7259.3462	505.64481
	9700	505.17669	-103.45153	608.62822	315.58152	19728.954	7259.3462	505.17669
	9710	506.26613	-67.457129	573.72326	297.48285	19715.19	7259.3462	506.26613
	9720	506.03609	-61.215211	567.2513	294.12706	19746.807	7259.3462	506.03609
	9730	505.31439	-89.208516	594.5229	308.26773	19659.459	7259.3462	505.31439
	9740	505.66897	-81.992011	587.66098	304.70973	19374.452	7259.3462	505.66897
	9750	506.24649	-67.418142	573.66463	297.45245	18952.899	7259.3462	506.24649
	9760	505.9879	-77.685795	583.67369	302.64228	19224.327	7259.3462	505.9879
	9770	505.42698	-80.876167	586.30314	304.00568	19564.649	7259.3462	505.42698
	9780	505.83091	-76.745993	582.5769	302.07357	19632.306	7259.3462	505.83091
	9790	506.27497	-58.839254	565.11422	293.01895	19446.626	7259.3462	506.27497
	9800	505.61303	-75.241446	580.85447	301.18047	19972.245	7259.3462	505.61303
	9810	505.59194	-75.470358	581.0623	301.28823	19755.228	7259.3462	505.59194
	9820	506.09483	-54.06875	560.16358	290.45198	19302.926	7259.3462	506.09483
	9830	505.84629	-77.526595	583.37289	302.4863	19475.393	7259.3462	505.84629
	9840	505.52576	-68.784688	574.31044	297.78731	19665.19	7259.3462	505.52576
	9850	506.153	-63.614811	569.76781	295.4319	19506.708	7259.3462	506.153
	9860	506.04289	-73.675235	579.71812	300.59126	19178.998	7259.3462	506.04289
	9870	505.85506	-73.894842	579.7499	300.60774	18988.57	7259.3462	505.85506
	9880	505.42734	-102.93117	608.3585	315.44166	18994.918	7259.3462	505.42734
	9890	505.8194	-80.719267	586.53866	304.1278	18340.104	7259.3462	505.8194
	9900	505.94095	-96.560536	602.50149	312.40473	18732.601	7259.3462	505.94095
	9910	505.3182	-89.339436	594.65763	308.33759	18938.47	7259.3462	505.3182
	9920	506.07399	-59.224327	565.29832	293.11441	18903.67	7259.3462	506.07399
	9930	506.24796	-61.63656	567.88452	294.45539	19405.367	7259.3462	506.24796
	9940	505.86698	-57.882942	563.74993	292.31155	19193.703	7259.3462	505.86698
	9950	505.57861	-99.1405	604.71911	313.55459	19206.174	7259.3462	505.57861
	9960	505.71467	-83.740413	589.45509	305.64	19603.5	7259.3462	505.71467
	9970	506.0124	-64.797463	570.80987	295.97222	20200.212	7259.3462	506.0124
	9980	505.28812	-89.895424	595.18355	308.61028	20277.689	7259.3462	505.28812
	9990	506.33695	-52.892201	559.22915	289.96747	19316.261	7259.3462	506.33695
