#	Time(fs)	Total Energy(kcal/mol)	Potential Energy(kcal/mol)	Kinetic Energy(kcal/mol)	Temperature(K)	Pressure(atm)	Volume(A^3)	Conserved Quantity(kcal/mol)
	0	505.71711	-95.279017	600.99612	311.62418	20887.055	7259.3462	505.71711
	10	505.31712	-106.23104	611.54816	317.09554	21021.606	7259.3462	505.31712
	20	506.0581	-99.671752	605.72986	314.07868	20936.695	7259.3462	506.0581
	30	506.02033	-76.929543	582.94987	302.26696	20594.855	7259.3462	506.02033
	40	506.06859	-89.307029	595.37561	308.70987	20406.011	7259.3462	506.06859
	50	505.97574	-91.52965	597.50539	309.81419	20066.701	7259.3462	505.97574
	60	506.2	-76.611503	582.8115	302.19522	20019.026	7259.3462	506.2
	70	506.21165	-76.869105	583.08076	302.33483	20015.262	7259.3462	506.21165
	80	505.24175	-94.579535	599.82129	311.01501	19745.856	7259.3462	505.24175
	90	505.97773	-70.098419	576.07615	298.70285	19457.357	7259.3462	505.97773
	100	506.31398	-58.562701	564.87668	292.89579	18934.849	7259.3462	506.31398
	110	505.59175	-89.667612	595.25936	308.64959	18908.43	7259.3462	505.59175
	120	506.00721	-71.678988	577.6862	299.53768	18491.582	7259.3462	506.00721
	130	506.19299	-74.070413	580.26341	300.874	18777.203	7259.3462	506.19299
	140	506.01476	-74.08266	580.09742	300.78793	18796.191	7259.3462	506.01476
	150	505.7663	-75.674593	581.44089	301.48454	19248.605	7259.3462	505.7663
	160	505.71343	-87.095311	592.80874	307.37891	19285.303	7259.3462	505.71343
	170	506.24588	-64.597289	570.84317	295.98949	19313.808	7259.3462	506.24588
	180	505.59412	-93.021796	598.61591	310.39001	19166.854	7259.3462	505.59412
	190	505.90225	-76.480138	582.38239	301.97272	19275.549	7259.3462	505.90225
	200	506.37577	-57.692045	564.06782	292.47638	19396.61	7259.3462	506.37577
	210	505.41427	-100.90788	606.32216	314.38579	19601.818	7259.3462	505.41427
	220	505.91932	-77.134751	583.05407	302.32099	19170.763	7259.3462	505.91932
	230	506.1848	-66.351185	572.53599	296.86723	19036.999	7259.3462	506.1848
	240	506.10577	-78.764852	584.87062	303.2629	19044.688	7259.3462	506.10577
	250	505.75305	-82.413565	588.16662	304.97191	19004.162	7259.3462	505.75305
	260	505.13351	-104.69329	609.8268	316.20299	19192.165	7259.3462	505.13351
	270	506.35428	-76.724088	583.07837	302.33359	18754.293	7259.3462	506.35428
	280	505.89316	-65.402434	571.29559	296.22407	18818.602	7259.3462	505.89316
	290	505.77396	-66.010872	571.78483	296.47775	18766.322	7259.3462	505.77396
	300	506.60736	-43.035538	549.6429	284.99687	18570.721	7259.3462	506.60736
	310	505.8875	-63.855951	569.74345	295.41927	18606.509	7259.3462	505.8875
	320	505.55703	-83.432158	588.98919	305.39843	18779.527	7259.3462	505.55703
	330	505.48174	-83.000521	588.48226	305.13558	18889.422	7259.3462	505.48174
	340	505.89004	-79.50987	585.39991	303.53734	18780.048	7259.3462	505.89004
	350	506.06479	-70.239537	576.30433	298.82117	19257.92	7259.3462	506.06479
	360	505.64559	-72.237695	577.88329	299.63988	19622.643	7259.3462	505.64559
	370	506.39913	-63.178767	569.5779	295.33343	19613.965	7259.3462	506.39913
	380	506.00499	-65.167425	571.17241	296.1602	19515.571	7259.3462	506.00499
	390	505.87982	-81.188241	587.06806	304.4023	19951.749	7259.3462	505.87982
	400	505.61711	-88.190299	593.80741	307.89674	19928.026	7259.3462	505.61711
	410	505.90305	-77.944698	583.84774	302.73252	20026.04	7259.3462	505.90305
	420	505.8845	-88.175736	594.06024	308.02783	19681.233	7259.3462	505.8845
	430	505.51222	-88.189542	593.70176	307.84196	19597.178	7259.3462	505.51222
	440	506.59247	-67.155024	573.74749	297.49541	19414.956	7259.3462	506.59247
	450	506.08035	-79.412884	585.49324	303.58573	19660.379	7259.3462	506.08035
	460	505.85398	-78.139371	583.99335	302.80802	19839.2	7259.3462	505.85398
	470	505.52746	-91.366092	596.89356	309.49694	19967.103	7259.3462	505.52746
	480	506.56677	-68.023104	574.58987	297.9322	19509.444	7259.3462	506.56677
	490	505.9614	-70.722982	576.68439	299.01823	19869.214	7259.3462	505.9614
	500	505.53313	-96.808251	602.34138	312.32171	20124.275	7259.3462	505.53313
	510	505.97172	-89.531195	595.50291	308.77588	19958.849	7259.3462	505.97172
	520	505.81776	-87.436585	593.25434	307.60996	20032.259	7259.3462	505.81776
	530	506.16878	-85.963917	592.1327	307.02838	19718.637	7259.3462	506.16878
	540	505.63541	-84.131518	589.76693	305.8017	19398.648	7259.3462	505.63541
	550	505.91355	-90.565073	596.47862	309.28179	19181.742	7259.3462	505.91355
	560	505.92144	-76.968394	582.88984	302.23583	19054.943	7259.3462	505.92144
	570	505.8145	-66.581354	572.39586	296.79457	19053.825	7259.3462	505.8145
	580	505.8356	-86.510937	592.34654	307.13925	18672.912	7259.3462	505.8356
	590	505.74804	-68.140945	573.88899	297.56878	19261.272	7259.3462	505.74804
	600	505.85086	-73.514241	579.36511	300.40822	19446.139	7259.3462	505.85086
	610	506.02327	-79.110869	585.13414	303.39953	19566.03	7259.3462	506.02327
	620	506.0386	-68.51623	574.55483	297.91403	19485.919	7259.3462	506.0386
	630	506.0402	-80.078991	586.11919	303.91029	19782.593	7259.3462	506.0402
	640	505.66558	-83.594904	589.26048	305.53909	19943.544	7259.3462	505.66558
	650	505.82127	-92.55956	598.38083	310.26811	20071.033	7259.3462	505.82127
	660	506.12141	-87.57957	593.70098	307.84155	19925.003	7259.3462	506.12141
	670	505.51251	-96.090326	601.60284	311.93876	19650.826	7259.3462	505.51251
	680	505.9411	-89.268612	595.20972	308.62385	19715.646	7259.3462	505.9411
	690	506.03782	-72.120781	578.1586	299.78263	19737.223	7259.3462	506.03782
	700	506.39114	-77.675924	584.06707	302.84624	19853.168	7259.3462	506.39114
	710	505.7415	-98.673836	604.41533	313.39708	19531.443	7259.3462	505.7415
	720	505.32074	-107.26471	612.58546	317.63339	19464.322	7259.3462	505.32074
	730	506.33394	-94.435471	600.76941	311.50662	19623.986	7259.3462	506.33394
	740	505.98534	-92.535979	598.52132	310.34096	19910.18	7259.3462	505.98534
	750	505.72021	-95.726901	601.44711	311.85802	20240.866	7259.3462	505.72021
	760	505.85502	-91.695201	597.55022	309.83743	20421.699	7259.3462	505.85502
	770	506.00926	-79.760725	585.76998	303.72923	20632.294	7259.3462	506.00926
	780	505.81005	-89.050094	594.86015	308.44259	20878.58	7259.3462	505.81005
	790	505.90348	-88.323543	594.22702	308.11431	20789.906	7259.3462	505.90348
	800	505.71664	-89.670482	595.38712	308.71583	20725.971	7259.3462	505.71664
	810	505.98499	-84.601592	590.58658	306.22669	20963.043	7259.3462	505.98499
	820	505.58917	-101.69843	607.2876	314.88639	20818.814	7259.3462	505.58917
	830	505.92815	-82.993407	588.92155	305.36336	20597.637	7259.3462	505.92815
	840	506.57434	-73.078499	579.65284	300.55741	20370.226	7259.3462	506.57434
	850	505.28804	-104.57037	609.85841	316.21938	20661.758	7259.3462	505.28804
	860	505.87739	-85.870939	591.74833	306.82908	20560.03	7259.3462	505.87739
	870	505.96475	-90.209904	596.17465	309.12418	20789.511	7259.3462	505.96475
	880	506.12277	-88.94623	595.069	308.55089	20827.93	7259.3462	506.12277
	890	505.47777	-96.591661	602.06943	312.1807	20640.9	7259.3462	505.47777
	900	505.72437	-91.022485	596.74685	309.42088	20627.807	7259.3462	505.72437
	910	506.79629	-60.697245	567.49353	294.25266	20112.76	7259.3462	506.79629
	920	505.95466	-75.799696	581.75435	301.64707	20203.994	7259.3462	505.95466
	930	505.52923	-104.08542	609.61466	316.093	20341.13	7259.3462	505.52923
	940	505.73507	-92.331379	598.06644	310.1051	20501.735	7259.3462	505.73507
	950	506.20911	-68.594826	574.80394	298.04319	20366.766	7259.3462	506.20911
	960	505.89691	-90.662866	596.55978	309.32387	20121.931	7259.3462	505.89691
	970	505.72677	-74.727452	580.45422	300.97294	20410.924	7259.3462	505.72677
	980	506.49376	-67.109123	573.60288	297.42043	20339.101	7259.3462	506.49376
	990	505.73497	-87.222338	592.95731	307.45595	20464.965	7259.3462	505.73497
	1000	505.6352	-88.020203	593.6554	307.81792	20476.453	7259.3462	505.6352
	1010	506.49818	-87.104807	593.60299	307.79074	20103.513	7259.3462	506.49818
	1020	505.7729	-86.487471	592.26037	307.09458	19621.467	7259.3462	505.7729
	1030	505.89191	-94.385852	600.27776	311.25169	19618.981	7259.3462	505.89191
	1040	505.62593	-114.84436	620.47028	321.72178	19445.855	7259.3462	505.62593
	1050	506.28876	-86.338761	592.62752	307.28495	19178.768	7259.3462	506.28876
	1060	506.10387	-100.83804	606.94191	314.70714	19063.293	7259.3462	506.10387
	1070	505.055	-111.30399	616.35899	319.59002	19309.568	7259.3462	505.055
	1080	506.61057	-74.094817	580.70539	301.10317	19402.083	7259.3462	506.61057
	1090	506.23514	-78.539639	584.77478	303.2132	19345.859	7259.3462	506.23514
	1100	505.52127	-100.78253	606.3038	314.37627	19425.88	7259.3462	505.52127
	1110	505.35431	-109.32278	614.67709	318.71793	19582.889	7259.3462	505.35431
	1120	506.10205	-89.653954	595.756	308.90711	19781.713	7259.3462	506.10205
	1130	506.1469	-82.129415	588.27631	305.02879	19882.9	7259.3462	506.1469
	1140	505.67117	-86.554923	592.22609	307.0768	19789.714	7259.3462	505.67117
	1150	506.05957	-77.606572	583.66614	302.63836	19885.853	7259.3462	506.05957
	1160	506.53175	-66.424439	572.95619	297.08511	20290.81	7259.3462	506.53175
	1170	505.74226	-99.50192	605.24418	313.82685	20488.503	7259.3462	505.74226
	1180	505.30331	-114.67204	619.97535	321.46515	20609.761	7259.3462	505.30331
	1190	506.09537	-88.463903	594.55927	308.28659	20632.278	7259.3462	506.09537
	1200	506.09271	-83.617804	589.71052	305.77244	20767.32	7259.3462	506.09271
	1210	505.55032	-80.983471	586.53379	304.12527	21085.601	7259.3462	505.55032
	1220	506.46687	-47.848522	554.31539	287.41962	20686.371	7259.3462	506.46687
	1230	506.27911	-61.764903	568.04401	294.53808	20332.606	7259.3462	506.27911
	1240	505.63213	-79.700807	585.33293	303.50261	20713.891	7259.3462	505.63213
	1250	505.37203	-79.831738	585.20377	303.43564	20790.989	7259.3462	505.37203
	1260	506.31597	-55.269125	561.5851	291.18906	20612.049	7259.3462	506.31597
	1270	506.51876	-46.491851	553.01061	286.74307	20068.097	7259.3462	506.51876
	1280	505.30029	-89.700778	595.00106	308.51566	19676.138	7259.3462	505.30029
	1290	505.6979	-94.817642	600.51554	311.37499	19496.529	7259.3462	505.6979
	1300	506.62769	-63.352845	569.98053	295.5422	19181.349	7259.3462	506.62769
	1310	505.87213	-88.739097	594.61123	308.31353	19256.672	7259.3462	505.87213
	1320	505.29059	-96.246965	601.53756	311.90492	19161.226	7259.3462	505.29059
	1330	505.76413	-72.693209	578.45734	299.93753	19203.399	7259.3462	505.76413
	1340	506.82376	-51.996359	558.82012	289.75538	19406.652	7259.3462	506.82376
	1350	505.66571	-70.191519	575.85723	298.58934	19782.85	7259.3462	505.66571
	1360	505.37654	-98.879988	604.25653	313.31474	19831.512	7259.3462	505.37654
	1370	506.21758	-75.887657	582.10524	301.82901	19789.526	7259.3462	506.21758
	1380	505.73207	-76.434917	582.16699	301.86103	20533.685	7259.3462	505.73207
	1390	506.01954	-95.662952	601.68249	311.98007	20970.38	7259.3462	506.01954
	1400	505.74062	-83.669985	589.4106	305.61694	20625.377	7259.3462	505.74062
	1410	506.52662	-79.843276	586.36989	304.04029	20328.982	7259.3462	506.52662
	1420	505.2201	-116.52448	621.74459	322.38252	20616.534	7259.3462	505.2201
	1430	505.69813	-89.673552	595.37168	308.70783	20747.94	7259.3462	505.69813
	1440	506.74264	-73.965293	580.70793	301.10449	20477	7259.3462	506.74264
	1450	505.45147	-93.808872	599.26034	310.72415	20434.893	7259.3462	505.45147
	1460	505.32505	-99.560399	604.88545	313.64084	20025.203	7259.3462	505.32505
	1470	506.29126	-76.998403	583.28966	302.44315	19653.464	7259.3462	506.29126
	1480	507.04455	-44.035011	551.07956	285.7418	19918.445	7259.3462	507.04455
	1490	505.37988	-97.39065	602.77053	312.54423	19964.042	7259.3462	505.37988
	1500	505.09353	-102.64172	607.73525	315.1185	19811.843	7259.3462	505.09353
	1510	506.33714	-68.842457	575.1796	298.23798	19286.675	7259.3462	506.33714
	1520	506.64919	-61.212052	567.86124	294.44332	19197.954	7259.3462	506.64919
	1530	505.60459	-74.712135	580.31673	300.90164	19460.069	7259.3462	505.60459
	1540	505.52567	-86.483106	592.00877	306.96412	19436.225	7259.3462	505.52567
	1550	506.61171	-49.765597	556.3773	288.48875	19476.698	7259.3462	506.61171
	1560	506.01369	-56.261595	562.27529	291.54693	19511.575	7259.3462	506.01369
	1570	506.03898	-66.900458	572.93944	297.07643	19371.137	7259.3462	506.03898
	1580	505.70838	-82.000101	587.70848	304.73436	19002.325	7259.3462	505.70838
	1590	505.99231	-76.723884	582.7162	302.1458	19027.281	7259.3462	505.99231
	1600	505.79841	-78.913813	584.71222	303.18077	19032.902	7259.3462	505.79841
	1610	506.235	-55.217208	561.45221	291.12015	19240.159	7259.3462	506.235
	1620	506.41425	-42.485937	548.90018	284.61177	19694.596	7259.3462	506.41425
	1630	505.2248	-72.658343	577.88314	299.6398	19773.742	7259.3462	505.2248
	1640	505.7159	-62.972189	568.68809	294.87205	19865.132	7259.3462	505.7159
	1650	506.8219	-24.163852	530.98575	275.3229	19893.732	7259.3462	506.8219
	1660	506.04067	-59.890532	565.9312	293.44256	20144.476	7259.3462	506.04067
	1670	505.1824	-74.893452	580.07585	300.77675	20065.095	7259.3462	505.1824
	1680	505.55433	-66.141403	571.69574	296.43155	20127.958	7259.3462	505.55433
	1690	506.94322	-42.019815	548.96304	284.64436	19789.061	7259.3462	506.94322
	1700	506.19568	-49.639643	555.83532	288.20772	19480.094	7259.3462	506.19568
	1710	504.8435	-102.79106	607.63456	315.06629	19491.433	7259.3462	504.8435
	1720	506.16244	-61.952069	568.11451	294.57464	19447.295	7259.3462	506.16244
	1730	506.39189	-52.009064	558.40096	289.53804	19191.461	7259.3462	506.39189
	1740	506.22386	-65.636827	571.86069	296.51708	19074.947	7259.3462	506.22386
	1750	505.4789	-80.568625	586.04752	303.87313	19221.864	7259.3462	505.4789
	1760	505.60348	-89.190299	594.79378	308.40818	19267.523	7259.3462	505.60348
	1770	506.17696	-56.070005	562.24697	291.53224	19537.762	7259.3462	506.17696
	1780	505.90501	-55.872231	561.77724	291.28868	19748.061	7259.3462	505.90501
	1790	506.4648	-54.691913	561.15671	290.96693	19579.249	7259.3462	506.4648
	1800	505.53958	-79.865368	585.40494	303.53995	19946.521	7259.3462	505.53958
	1810	505.67186	-75.537953	581.20981	301.36472	20515.411	7259.3462	505.67186
	1820	506.0988	-67.209693	573.30849	297.26778	20621.352	7259.3462	506.0988
	1830	506.17977	-59.031518	565.21129	293.06928	20478.611	7259.3462	506.17977
	1840	506.07092	-75.676054	581.74698	301.64325	20290.828	7259.3462	506.07092
	1850	504.87463	-105.47671	610.35134	316.47498	20711.433	7259.3462	504.87463
	1860	506.72367	-55.945559	562.66922	291.75119	20561.86	7259.3462	506.72367
	1870	506.06443	-71.216129	577.28056	299.32735	20368.038	7259.3462	506.06443
	1880	505.69505	-83.186216	588.88127	305.34247	20014.936	7259.3462	505.69505
	1890	505.60363	-81.378969	586.9826	304.35798	19615.517	7259.3462	505.60363
	1900	506.01184	-83.083371	589.09521	305.4534	19951.306	7259.3462	506.01184
	1910	506.25535	-51.709058	557.96441	289.31168	19942.606	7259.3462	506.25535
	1920	505.39529	-86.467187	591.86248	306.88826	20160.558	7259.3462	505.39529
	1930	506.25496	-72.194805	578.44977	299.9336	19802.512	7259.3462	506.25496
	1940	505.97494	-59.668449	565.64338	293.29333	19800.549	7259.3462	505.97494
	1950	505.91337	-79.859811	585.77318	303.73088	20179.821	7259.3462	505.91337
	1960	505.66146	-79.673888	585.33535	303.50387	20172.419	7259.3462	505.66146
	1970	505.9053	-83.119242	589.02454	305.41676	20115.987	7259.3462	505.9053
	1980	506.08083	-75.33966	581.42049	301.47396	20179.574	7259.3462	506.08083
	1990	505.65712	-80.348593	586.00571	303.85146	20263.212	7259.3462	505.65712
	2000	505.98118	-80.05295	586.03413	303.86619	20652.887	7259.3462	505.98118
	2010	506.26041	-74.82624	581.08665	301.30086	20455.973	7259.3462	506.26041
	2020	505.64246	-98.900203	604.54266	313.4631	20499.736	7259.3462	505.64246
	2030	505.58686	-99.579382	605.16624	313.78644	20373.013	7259.3462	505.58686
	2040	505.90713	-90.982017	596.88915	309.49466	20292.211	7259.3462	505.90713
	2050	506.02024	-72.919077	578.93931	300.18744	20348.325	7259.3462	506.02024
	2060	505.7617	-69.369712	575.13141	298.21299	20450.38	7259.3462	505.7617
	2070	505.79909	-87.13048	592.92957	307.44156	20282.142	7259.3462	505.79909
	2080	506.3456	-68.357193	574.70279	297.99075	20190.188	7259.3462	506.3456
	2090	505.57587	-86.267604	591.84348	306.87841	20296.867	7259.3462	505.57587
	2100	505.5024	-98.04383	603.54623	312.94644	20601.713	7259.3462	505.5024
	2110	506.3945	-55.459524	561.85402	291.3285	20388.414	7259.3462	506.3945
	2120	506.07058	-67.614481	573.68506	297.46304	19997.913	7259.3462	506.07058
	2130	505.60575	-91.808812	597.41457	309.76709	19964.106	7259.3462	505.60575
	2140	505.75965	-90.091716	595.85136	308.95655	19937.135	7259.3462	505.75965
	2150	506.16501	-80.298222	586.46323	304.08868	19835.63	7259.3462	506.16501
	2160	506.08648	-74.494587	580.58107	301.03871	19865.808	7259.3462	506.08648
	2170	505.4885	-87.037814	592.52631	307.23247	19875.262	7259.3462	505.4885
	2180	505.91334	-88.712979	594.62632	308.32135	19691.404	7259.3462	505.91334
	2190	506.19362	-70.047391	576.24101	298.78833	19648.164	7259.3462	506.19362
	2200	505.57105	-95.770223	601.34128	311.80314	19572.601	7259.3462	505.57105
	2210	506.12145	-79.034577	585.15603	303.41088	19517.378	7259.3462	506.12145
	2220	505.62445	-74.459563	580.08402	300.78098	19464.609	7259.3462	505.62445
	2230	505.93433	-69.465418	575.39975	298.35213	19267.016	7259.3462	505.93433
	2240	505.71216	-67.427313	573.13948	297.18015	19524.009	7259.3462	505.71216
	2250	506.20749	-68.06064	574.26813	297.76537	19530.933	7259.3462	506.20749
	2260	506.44352	-69.216573	575.66009	298.48712	19370.052	7259.3462	506.44352
	2270	505.13988	-93.727181	598.86706	310.52023	19680.239	7259.3462	505.13988
	2280	505.60129	-91.895694	597.49699	309.80983	20175.792	7259.3462	505.60129
	2290	506.03743	-66.39004	572.42747	296.81096	20276.563	7259.3462	506.03743
	2300	506.10537	-54.061663	560.16703	290.45377	20569.598	7259.3462	506.10537
	2310	505.72568	-78.819152	584.54483	303.09397	20313.029	7259.3462	505.72568
	2320	505.49356	-74.048579	579.54214	300.50001	19667.729	7259.3462	505.49356
	2330	506.48094	-56.718795	563.19973	292.02626	19696.393	7259.3462	506.48094
	2340	505.63308	-77.029052	582.66213	302.11777	19763.604	7259.3462	505.63308
	2350	505.78098	-73.970369	579.75134	300.60849	19486.381	7259.3462	505.78098
	2360	506.01728	-67.918123	573.9354	297.59285	19395.239	7259.3462	506.01728
	2370	505.67038	-65.765953	571.43633	296.29704	19462.905	7259.3462	505.67038
	2380	506.23404	-54.158744	560.39278	290.57082	19600.495	7259.3462	506.23404
	2390	505.75462	-74.004063	579.75869	300.61229	19635.759	7259.3462	505.75462
	2400	506.10624	-76.113025	582.21926	301.88813	19821.671	7259.3462	506.10624
	2410	505.3091	-100.23428	605.54338	313.98199	19734.124	7259.3462	505.3091
	2420	505.7198	-100.48811	606.20791	314.32656	19888.11	7259.3462	505.7198
	2430	506.11774	-81.58959	587.70733	304.73377	20012.812	7259.3462	506.11774
	2440	505.97766	-88.254278	594.23193	308.11686	20335.31	7259.3462	505.97766
	2450	505.94951	-74.872409	580.82192	301.1636	20620.816	7259.3462	505.94951
	2460	505.58322	-74.898621	580.48184	300.98726	20406.046	7259.3462	505.58322
	2470	506.30168	-74.206321	580.508	301.00082	20228.056	7259.3462	506.30168
	2480	505.31051	-93.607502	598.91801	310.54665	20121.413	7259.3462	505.31051
	2490	505.90239	-82.882698	588.78509	305.2926	20091.858	7259.3462	505.90239
	2500	506.27172	-76.73885	583.01057	302.29844	19798.129	7259.3462	506.27172
	2510	505.78168	-64.691478	570.47316	295.79763	19716.768	7259.3462	505.78168
	2520	506.14569	-72.33074	578.47643	299.94743	19669.002	7259.3462	506.14569
	2530	505.26781	-100.86402	606.13182	314.2871	20010.581	7259.3462	505.26781
	2540	506.31879	-47.055803	553.3746	286.9318	20083.757	7259.3462	506.31879
	2550	505.68961	-75.759448	581.44906	301.48877	19818.002	7259.3462	505.68961
	2560	505.77164	-64.027692	569.79933	295.44824	19469.765	7259.3462	505.77164
	2570	506.18366	-31.352747	537.53641	278.7195	19346.084	7259.3462	506.18366
	2580	505.9375	-63.184206	569.12171	295.09688	19375.621	7259.3462	505.9375
	2590	506.14234	-61.168932	567.31127	294.15815	19438.856	7259.3462	506.14234
	2600	505.18263	-100.60301	605.78565	314.1076	19750.689	7259.3462	505.18263
	2610	506.02905	-86.069731	592.09878	307.01079	19653.072	7259.3462	506.02905
	2620	505.66961	-64.863456	570.53307	295.82869	19772.546	7259.3462	505.66961
	2630	506.07449	-75.20819	581.28268	301.4025	19699.467	7259.3462	506.07449
	2640	506.3156	-61.066445	567.38205	294.19485	19612.331	7259.3462	506.3156
	2650	505.73879	-77.768539	583.50733	302.55601	19861.006	7259.3462	505.73879
	2660	505.58632	-86.957337	592.54366	307.24147	20157.777	7259.3462	505.58632
	2670	505.54527	-60.541629	566.08689	293.52329	20105.21	7259.3462	505.54527
	2680	506.42054	-61.925558	568.3461	294.69472	19777.206	7259.3462	506.42054
	2690	506.08757	-64.739638	570.82721	295.98121	19647.242	7259.3462	506.08757
	2700	505.49105	-87.193572	592.68462	307.31456	19868.911	7259.3462	505.49105
	2710	505.52679	-95.019922	600.54671	311.39115	20051.056	7259.3462	505.52679
	2720	506.18669	-60.847819	567.03451	294.01464	19973.231	7259.3462	506.18669
	2730	506.01393	-79.763244	585.77717	303.73296	20190.252	7259.3462	506.01393
	2740	505.61984	-77.523474	583.14332	302.36727	20236.579	7259.3462	505.61984
	2750	505.81012	-72.449538	578.25966	299.83503	20183.502	7259.3462	505.81012
	2760	506.00594	-68.916466	574.9224	298.10462	20220.818	7259.3462	506.00594
	2770	506.01888	-59.877868	565.89675	293.4247	19498.216	7259.3462	506.01888
	2780	505.5983	-74.067379	579.66568	300.56407	19267.474	7259.3462	505.5983
	2790	506.08983	-65.815336	571.90517	296.54014	19044.644	7259.3462	506.08983
	2800	505.58469	-75.40382	580.98851	301.24997	19151.673	7259.3462	505.58469
	2810	505.88625	-71.810297	577.69655	299.54305	18540.341	7259.3462	505.88625
	2820	505.99057	-72.249174	578.23975	299.8247	18488.638	7259.3462	505.99057
	2830	506.09528	-60.629354	566.72464	293.85397	18779.541	7259.3462	506.09528
	2840	505.76221	-64.240015	570.00223	295.55344	19150.726	7259.3462	505.76221
	2850	505.63634	-91.790092	597.42644	309.77325	19100.081	7259.3462	505.63634
	2860	506.23679	-66.606593	572.84338	297.02662	19017.349	7259.3462	506.23679
	2870	505.32385	-91.626982	596.95083	309.52664	19239.215	7259.3462	505.32385
	2880	506.28936	-76.267687	582.55705	302.06328	19282.757	7259.3462	506.28936
	2890	505.67941	-62.478809	568.15822	294.5973	19262.273	7259.3462	505.67941
	2900	506.12841	-73.891319	580.01973	300.74765	19007.139	7259.3462	506.12841
	2910	505.6142	-80.227089	585.84128	303.7662	19120.538	7259.3462	505.6142
	2920	505.54168	-60.552269	566.09395	293.52695	19466.46	7259.3462	505.54168
	2930	506.22571	-67.405938	573.63165	297.43535	19549.882	7259.3462	506.22571
	2940	505.3579	-60.115501	565.4734	293.20519	19661.377	7259.3462	505.3579
	2950	506.15149	-55.11587	561.26736	291.0243	19377.324	7259.3462	506.15149
	2960	505.83575	-65.722942	571.55869	296.36049	19146.374	7259.3462	505.83575
	2970	506.1611	-47.381064	553.54217	287.01869	18982.685	7259.3462	506.1611
	2980	505.40677	-95.276485	600.68326	311.46195	19609.563	7259.3462	505.40677
	2990	505.64774	-69.137153	574.78489	298.03332	19400.161	7259.3462	505.64774
	3000	505.77284	-67.801988	573.57483	297.40589	18966.029	7259.3462	505.77284
	3010	506.40023	-62.645244	569.04547	295.05736	18900.343	7259.3462	506.40023
	3020	505.84063	-58.439369	564.28	292.5864	19238.032	7259.3462	505.84063
	3030	505.61205	-83.700878	589.31293	305.56629	19509.479	7259.3462	505.61205
	3040	505.88884	-75.796574	581.68541	301.61133	19362.884	7259.3462	505.88884
	3050	505.48276	-79.672355	585.15511	303.41041	19513.143	7259.3462	505.48276
	3060	506.24727	-67.960929	574.2082	297.73429	19833.879	7259.3462	506.24727
	3070	505.73992	-54.798281	560.5382	290.64623	19611.638	7259.3462	505.73992
	3080	506.22376	-52.288162	558.51192	289.59557	19849.279	7259.3462	506.22376
	3090	505.87779	-69.39222	575.27001	298.28486	19594.855	7259.3462	505.87779
	3100	505.79353	-77.248582	583.04211	302.31479	19831.091	7259.3462	505.79353
	3110	505.92045	-88.285283	594.20574	308.10327	20036.703	7259.3462	505.92045
	3120	505.48328	-78.060306	583.54359	302.57481	20381.471	7259.3462	505.48328
	3130	505.91198	-69.872486	575.78447	298.55161	20465.897	7259.3462	505.91198
	3140	506.39247	-65.823527	572.216	296.70131	19872.804	7259.3462	506.39247
	3150	506.16153	-66.256165	572.41769	296.80589	19785.226	7259.3462	506.16153
	3160	505.41855	-95.907306	601.32586	311.79515	20063.935	7259.3462	505.41855
	3170	505.93849	-82.677943	588.61643	305.20515	20148.341	7259.3462	505.93849
	3180	505.73165	-81.090892	586.82254	304.27499	20088.257	7259.3462	505.73165
	3190	506.02323	-77.274038	583.29727	302.44709	19584.942	7259.3462	506.02323
	3200	505.64798	-68.857317	574.5053	297.88834	19227.65	7259.3462	505.64798
	3210	505.84313	-69.799213	575.64234	298.47792	19190.821	7259.3462	505.84313
	3220	506.36842	-46.172948	552.54137	286.49976	18628.651	7259.3462	506.36842
	3230	505.59055	-71.888636	577.47919	299.43035	18703.625	7259.3462	505.59055
	3240	505.39258	-96.650471	602.04305	312.16702	18529.834	7259.3462	505.39258
	3250	506.05982	-55.084337	561.14416	290.96042	18367.225	7259.3462	506.05982
	3260	505.71089	-68.739572	574.45046	297.85991	18743.529	7259.3462	505.71089
	3270	506.19596	-56.451879	562.64784	291.7401	18741.963	7259.3462	506.19596
	3280	505.53456	-75.900238	581.4348	301.48138	18842.976	7259.3462	505.53456
	3290	505.47506	-81.804437	587.2795	304.51193	18688.887	7259.3462	505.47506
	3300	506.20949	-63.714484	569.92397	295.51287	18417.702	7259.3462	506.20949
	3310	505.38145	-88.242508	593.62396	307.80161	18496.051	7259.3462	505.38145
	3320	506.30532	-55.463971	561.76929	291.28456	18175.774	7259.3462	506.30532
	3330	505.81126	-76.330899	582.14216	301.84815	18250.155	7259.3462	505.81126
	3340	505.50143	-93.443981	598.94541	310.56085	17963.298	7259.3462	505.50143
	3350	506.13789	-54.683608	560.8215	290.79312	17615.095	7259.3462	506.13789
	3360	505.80129	-85.001446	590.80274	306.33878	17887.954	7259.3462	505.80129
	3370	506.1598	-59.736938	565.89673	293.42469	18197.076	7259.3462	506.1598
	3380	505.48105	-68.642798	574.12384	297.69056	18687.865	7259.3462	505.48105
	3390	505.98572	-72.330616	578.31634	299.86442	19291.188	7259.3462	505.98572
	3400	506.53946	-26.881974	533.42143	276.58584	19290.207	7259.3462	506.53946
	3410	505.56993	-74.508513	580.07844	300.77809	19660.527	7259.3462	505.56993
	3420	505.50379	-82.324988	587.82878	304.79674	20017.381	7259.3462	505.50379
	3430	505.92837	-55.304486	561.23285	291.00641	20274.02	7259.3462	505.92837
	3440	506.16576	-71.245084	577.41084	299.39491	20852.926	7259.3462	506.16576
	3450	505.71313	-72.740635	578.45376	299.93567	20781.271	7259.3462	505.71313
	3460	505.36779	-83.375121	588.74291	305.27073	20698.577	7259.3462	505.36779
	3470	506.12778	-75.971971	582.09975	301.82617	20599.072	7259.3462	506.12778
	3480	506.08476	-59.42936	565.51412	293.2263	20458.412	7259.3462	506.08476
	3490	506.08224	-66.543823	572.62606	296.91394	20398.278	7259.3462	506.08224
	3500	505.68772	-71.691961	577.37968	299.37875	20375.263	7259.3462	505.68772
	3510	505.80548	-79.481692	585.28717	303.47888	20248.642	7259.3462	505.80548
	3520	505.58658	-74.415095	580.00167	300.73829	20377.59	7259.3462	505.58658
	3530	505.70767	-75.903937	581.61161	301.57306	19782.349	7259.3462	505.70767
	3540	506.32603	-57.080083	563.40612	292.13328	19462.476	7259.3462	506.32603
	3550	505.60508	-72.705982	578.31106	299.86168	19442.969	7259.3462	505.60508
	3560	505.702	-83.965752	589.66775	305.75027	18989.446	7259.3462	505.702
	3570	505.38987	-90.442301	595.83217	308.9466	18773.222	7259.3462	505.38987
	3580	506.17898	-84.757873	590.93686	306.40832	18527.268	7259.3462	506.17898
	3590	505.65336	-80.78138	586.43474	304.07391	18633.125	7259.3462	505.65336
	3600	505.62563	-75.479984	581.10562	301.31069	18504.505	7259.3462	505.62563
	3610	506.0772	-64.156465	570.23366	295.67345	18618.011	7259.3462	506.0772
	3620	505.87543	-63.135792	569.01122	295.0396	18805.953	7259.3462	505.87543
	3630	506.02629	-71.633993	577.66029	299.52425	18667.986	7259.3462	506.02629
	3640	505.07241	-79.977576	585.04999	303.3559	19150.969	7259.3462	505.07241
	3650	506.15441	-50.996915	557.15132	288.89008	18986.13	7259.3462	506.15441
	3660	505.91034	-50.135979	556.04631	288.31713	18918.203	7259.3462	505.91034
	3670	505.80846	-47.844549	553.65301	287.07616	19046.247	7259.3462	505.80846
	3680	506.01993	-52.440083	558.46002	289.56866	18982.293	7259.3462	506.01993
	3690	505.6929	-70.697225	576.39012	298.86565	18994.834	7259.3462	505.6929
	3700	505.46599	-78.608734	584.07472	302.85021	19052.158	7259.3462	505.46599
	3710	505.6374	-66.089522	571.72692	296.44772	19207.443	7259.3462	505.6374
	3720	506.48521	-53.93909	560.4243	290.58717	19390.492	7259.3462	506.48521
	3730	505.98905	-57.667508	563.65656	292.26313	19120.003	7259.3462	505.98905
	3740	505.31111	-82.378931	587.69004	304.7248	19149.672	7259.3462	505.31111
	3750	505.69768	-80.816224	586.5139	304.11496	19129.665	7259.3462	505.69768
	3760	506.38302	-65.03143	571.41445	296.2857	18600.308	7259.3462	506.38302
	3770	505.42984	-97.441178	602.87102	312.59633	18848.435	7259.3462	505.42984
	3780	505.30624	-73.729692	579.03593	300.23753	18904.747	7259.3462	505.30624
	3790	506.25187	-50.014969	556.26684	288.43147	18736.365	7259.3462	506.25187
	3800	506.36277	-60.308045	566.67082	293.82607	19137.431	7259.3462	506.36277
	3810	505.38873	-78.524145	583.91288	302.76629	19020.658	7259.3462	505.38873
	3820	505.15332	-93.782853	598.93617	310.55606	19294.38	7259.3462	505.15332
	3830	506.12925	-72.863119	578.99237	300.21495	19056.424	7259.3462	506.12925
	3840	505.91705	-49.457735	555.37479	287.96893	18868.699	7259.3462	505.91705
	3850	505.75386	-72.124933	577.87879	299.63754	19060.47	7259.3462	505.75386
	3860	505.76581	-55.027133	560.79294	290.77831	19012.58	7259.3462	505.76581
	3870	505.99149	-59.546751	565.53824	293.23881	18767.545	7259.3462	505.99149
	3880	505.33974	-97.352796	602.69254	312.50379	18242.756	7259.3462	505.33974
	3890	506.17777	-57.079518	563.25729	292.05611	17834.408	7259.3462	506.17777
	3900	505.71086	-81.571817	587.28268	304.51358	18356.098	7259.3462	505.71086
	3910	505.88583	-62.62327	568.5091	294.77924	19010.507	7259.3462	505.88583
	3920	505.63535	-51.573291	557.20864	288.91981	19449.618	7259.3462	505.63535
	3930	506.02351	-59.853959	565.87747	293.41471	18920.114	7259.3462	506.02351
	3940	506.25381	-61.584674	567.83848	294.43151	18358.905	7259.3462	506.25381
	3950	505.04291	-101.89661	606.93953	314.70591	18717.162	7259.3462	505.04291
	3960	506.00897	-69.957477	575.96644	298.64597	18443.052	7259.3462	506.00897
	3970	506.08994	-60.505064	566.595	293.78675	18610.502	7259.3462	506.08994
	3980	505.89468	-71.523341	577.41802	299.39863	18971.836	7259.3462	505.89468
	3990	505.64823	-78.042002	583.69024	302.65085	19056.408	7259.3462	505.64823
	4000	505.87907	-88.103368	593.98244	307.98749	19375.14	7259.3462	505.87907
	4010	505.78659	-80.243986	586.03058	303.86435	19561.96	7259.3462	505.78659
	4020	506.03652	-66.987382	573.0239	297.12022	19729.181	7259.3462	506.03652
	4030	505.67786	-82.63561	588.31347	305.04806	20294.6	7259.3462	505.67786
	4040	506.39535	-58.686257	565.0816	293.00204	20065.928	7259.3462	506.39535
	4050	505.95383	-85.642023	591.59585	306.75002	19916.215	7259.3462	505.95383
	4060	505.41586	-85.431364	590.84723	306.36184	20232.351	7259.3462	505.41586
	4070	506.52253	-57.806007	564.32853	292.61156	20354.236	7259.3462	506.52253
	4080	505.86345	-73.762297	579.62575	300.54336	20628.701	7259.3462	505.86345
	4090	505.78808	-83.351403	589.13949	305.47636	20219.272	7259.3462	505.78808
	4100	505.57614	-114.22186	619.79801	321.37319	20179.158	7259.3462	505.57614
	4110	506.23038	-72.417811	578.64819	300.03649	20015.919	7259.3462	506.23038
	4120	506.3829	-60.15505	566.53795	293.75717	19776.687	7259.3462	506.3829
	4130	505.43695	-95.642018	601.07896	311.66713	19966.324	7259.3462	505.43695
	4140	506.18654	-55.799073	561.98562	291.39673	19759.988	7259.3462	506.18654
	4150	505.64677	-86.028766	591.67554	306.79133	20079.653	7259.3462	505.64677
	4160	505.91677	-66.861005	572.77777	296.9926	20161.424	7259.3462	505.91677
	4170	505.67713	-67.24699	572.92412	297.06848	19733.121	7259.3462	505.67713
	4180	505.7247	-91.088279	596.81298	309.45516	19573.076	7259.3462	505.7247
	4190	506.08737	-58.937527	565.0249	292.97263	19310.058	7259.3462	506.08737
	4200	505.79041	-76.316684	582.1071	301.82997	19155.902	7259.3462	505.79041
	4210	505.88177	-82.451075	588.33284	305.0581	19183.17	7259.3462	505.88177
	4220	506.32613	-58.972918	565.29905	293.11479	19023.948	7259.3462	506.32613
	4230	505.3633	-98.037216	603.40052	312.87088	19049.642	7259.3462	505.3633
	4240	506.04208	-75.307883	581.34996	301.43739	18947.011	7259.3462	506.04208
	4250	506.04681	-72.631426	578.67823	300.05206	19288.357	7259.3462	506.04681
	4260	505.95454	-93.220861	599.1754	310.68011	18824.697	7259.3462	505.95454
	4270	505.79349	-86.569777	592.36327	307.14793	18518.327	7259.3462	505.79349
	4280	505.96728	-76.941386	582.90867	302.2456	18591.862	7259.3462	505.96728
	4290	506.32757	-70.729064	577.05663	299.21124	18853.661	7259.3462	506.32757
	4300	505.60873	-81.757572	587.36631	304.55694	19173.216	7259.3462	505.60873
	4310	505.8353	-85.412669	591.24797	306.56963	19301.959	7259.3462	505.8353
	4320	505.99142	-76.460818	582.45224	302.00894	19311.739	7259.3462	505.99142
	4330	505.73571	-70.301562	576.03727	298.68269	19634.832	7259.3462	505.73571
	4340	505.72721	-84.373754	590.10097	305.9749	20031.833	7259.3462	505.72721
	4350	506.48488	-54.417618	560.90249	290.83512	19910.483	7259.3462	506.48488
	4360	506.09321	-57.66386	563.75707	292.31525	19982.568	7259.3462	506.09321
	4370	505.6892	-85.392373	591.08158	306.48336	19675.917	7259.3462	505.6892
	4380	505.65654	-90.485741	596.14228	309.1074	19570.733	7259.3462	505.65654
	4390	506.25686	-57.94756	564.20442	292.54721	19860.431	7259.3462	506.25686
	4400	506.28705	-68.052998	574.34005	297.80266	19830.904	7259.3462	506.28705
	4410	504.9426	-103.64599	608.5886	315.56097	19859.753	7259.3462	504.9426
	4420	506.33165	-65.988609	572.32026	296.75537	19103.449	7259.3462	506.33165
	4430	505.93027	-71.014331	576.9446	299.15315	19072.477	7259.3462	505.93027
	4440	506.40097	-68.169554	574.57052	297.92216	19042.504	7259.3462	506.40097
	4450	505.52619	-88.69742	594.22361	308.11254	18954.185	7259.3462	505.52619
	4460	505.91645	-78.775282	584.69173	303.17014	18952.74	7259.3462	505.91645
	4470	506.01411	-78.39491	584.40902	303.02355	18723.006	7259.3462	506.01411
	4480	505.65755	-84.485752	590.1433	305.99685	19000.215	7259.3462	505.65755
	4490	506.43375	-59.741817	566.17557	293.56927	19149.407	7259.3462	506.43375
	4500	505.79651	-85.852091	591.6486	306.77736	19123.247	7259.3462	505.79651
	4510	505.49876	-107.94378	613.44254	318.0778	19318.967	7259.3462	505.49876
	4520	505.79935	-81.012182	586.81153	304.26928	19281.512	7259.3462	505.79935
	4530	506.49747	-72.8285	579.32597	300.38792	19171.36	7259.3462	506.49747
	4540	506.05757	-95.817488	601.87506	312.07991	19494.645	7259.3462	506.05757
	4550	505.29803	-89.830807	595.12883	308.58191	19616.666	7259.3462	505.29803
	4560	506.01435	-90.372856	596.3872	309.23439	20011.114	7259.3462	506.01435
	4570	506.4653	-60.204786	566.67008	293.82569	20520.13	7259.3462	506.4653
	4580	505.67057	-85.334136	591.0047	306.4435	20572.539	7259.3462	505.67057
	4590	505.36887	-96.417701	601.78657	312.03403	20644.22	7259.3462	505.36887
	4600	506.1265	-59.816344	565.94284	293.4486	20794.35	7259.3462	506.1265
	4610	506.26203	-60.36647	566.6285	293.80412	20911.606	7259.3462	506.26203
	4620	505.63755	-72.48054	578.11809	299.76162	20932.702	7259.3462	505.63755
	4630	505.63708	-81.484203	587.12128	304.42989	20938.709	7259.3462	505.63708
	4640	505.91031	-83.406076	589.31638	305.56808	20464.78	7259.3462	505.91031
	4650	505.98703	-87.649696	593.63673	307.80824	20348.711	7259.3462	505.98703
	4660	506.14531	-73.26496	579.41027	300.43163	20062.653	7259.3462	506.14531
	4670	505.7578	-71.69262	577.45042	299.41543	19967.145	7259.3462	505.7578
	4680	506.48898	-64.106736	570.59571	295.86117	19912.78	7259.3462	506.48898
	4690	505.32348	-85.385057	590.70854	306.28993	19967.876	7259.3462	505.32348
	4700	506.1929	-71.489392	577.68229	299.53565	19544.019	7259.3462	506.1929
	4710	505.87348	-80.833486	586.70697	304.21507	19189.207	7259.3462	505.87348
	4720	505.61071	-72.718482	578.32919	299.87108	19567.14	7259.3462	505.61071
	4730	506.24143	-57.057376	563.2988	292.07763	19515.806	7259.3462	506.24143
	4740	506.20791	-52.980832	559.18874	289.94651	19701.653	7259.3462	506.20791
	4750	506.3869	-54.581862	560.96876	290.86948	19848.06	7259.3462	506.3869
	4760	505.4714	-93.457182	598.92858	310.55213	20397.454	7259.3462	505.4714
	4770	505.47127	-101.30122	606.77249	314.6193	20510.526	7259.3462	505.47127
	4780	505.73408	-89.840852	595.57493	308.81322	20240.142	7259.3462	505.73408
	4790	506.32886	-64.734589	571.06345	296.1037	19904.3	7259.3462	506.32886
	4800	505.4796	-83.053851	588.53345	305.16212	19996.584	7259.3462	505.4796
	4810	506.33931	-66.452872	572.79218	297.00007	19893.93	7259.3462	506.33931
	4820	506.18743	-67.147431	573.33486	297.28146	19877.094	7259.3462	506.18743
	4830	505.76437	-91.638025	597.4024	309.76078	19847.166	7259.3462	505.76437
	4840	505.62193	-94.109618	599.73155	310.96848	19978.183	7259.3462	505.62193
	4850	505.55535	-86.300992	591.85634	306.88508	19740.384	7259.3462	505.55535
	4860	506.30676	-61.016899	567.32366	294.16457	19666.725	7259.3462	506.30676
	4870	505.90143	-65.474507	571.37594	296.26573	19861.356	7259.3462	505.90143
	4880	505.99429	-77.798874	583.79316	302.70422	19947.814	7259.3462	505.99429
	4890	505.94656	-84.65387	590.60043	306.23388	20185.917	7259.3462	505.94656
	4900	506.09766	-77.350159	583.44782	302.52516	20185.05	7259.3462	506.09766
	4910	505.78616	-97.13685	602.92301	312.62329	20067.61	7259.3462	505.78616
	4920	505.79109	-94.777209	600.56829	311.40234	20264.381	7259.3462	505.79109
	4930	506.36302	-64.284546	570.64756	295.88806	20432.708	7259.3462	506.36302
	4940	505.98934	-74.174906	580.16425	300.82258	20114.251	7259.3462	505.98934
	4950	505.32165	-92.985928	598.30758	310.23013	20172.75	7259.3462	505.32165
	4960	506.05034	-71.553034	577.60337	299.49474	19850.641	7259.3462	506.05034
	4970	505.90171	-85.723549	591.62526	306.76526	19718.084	7259.3462	505.90171
	4980	506.0502	-64.963043	571.01324	296.07767	19395.064	7259.3462	506.0502
	4990	506.2122	-59.117197	565.3294	293.13052	19602.764	7259.3462	506.2122
