#	Time(fs)	Total Energy(kcal/mol)	Potential Energy(kcal/mol)	Kinetic Energy(kcal/mol)	Temperature(K)	Pressure(atm)	Volume(A^3)	Conserved Quantity(kcal/mol)
	0	505.71711	-95.279017	600.99612	311.62418	20887.055	7259.3462	505.71711
	10	505.31712	-106.23104	611.54816	317.09554	21021.606	7259.3462	505.31712
	20	506.0581	-99.671752	605.72986	314.07868	20936.695	7259.3462	506.0581
	30	506.02033	-76.929543	582.94987	302.26696	20594.855	7259.3462	506.02033
	40	506.06859	-89.307029	595.37561	308.70987	20406.011	7259.3462	506.06859
	50	505.97574	-91.52965	597.50539	309.81419	20066.701	7259.3462	505.97574
	60	506.2	-76.611503	582.8115	302.19522	20019.026	7259.3462	506.2
	70	506.21165	-76.869105	583.08076	302.33483	20015.262	7259.3462	506.21165
	80	505.24175	-94.579535	599.82129	311.01501	19745.856	7259.3462	505.24175
	90	505.97773	-70.098419	576.07615	298.70285	19457.357	7259.3462	505.97773
	100	506.31398	-58.562701	564.87668	292.89579	18934.849	7259.3462	506.31398
	110	505.59175	-89.667612	595.25936	308.64959	18908.43	7259.3462	505.59175
	120	506.00721	-71.678988	577.6862	299.53768	18491.582	7259.3462	506.00721
	130	506.19299	-74.070413	580.26341	300.874	18777.203	7259.3462	506.19299
	140	506.01476	-74.08266	580.09742	300.78793	18796.191	7259.3462	506.01476
	150	505.7663	-75.674593	581.44089	301.48454	19248.605	7259.3462	505.7663
	160	505.71343	-87.095311	592.80874	307.37891	19285.303	7259.3462	505.71343
	170	506.24588	-64.597289	570.84317	295.98949	19313.808	7259.3462	506.24588
	180	505.59412	-93.021796	598.61591	310.39001	19166.854	7259.3462	505.59412
	190	505.90225	-76.480138	582.38239	301.97272	19275.549	7259.3462	505.90225
	200	506.37577	-57.692045	564.06782	292.47638	19396.61	7259.3462	506.37577
	210	505.41427	-100.90788	606.32216	314.38579	19601.818	7259.3462	505.41427
	220	505.91932	-77.134751	583.05407	302.32099	19170.763	7259.3462	505.91932
	230	506.1848	-66.351185	572.53599	296.86723	19036.999	7259.3462	506.1848
	240	506.10577	-78.764852	584.87062	303.2629	19044.688	7259.3462	506.10577
	250	505.75305	-82.413565	588.16662	304.97191	19004.162	7259.3462	505.75305
	260	505.13351	-104.69329	609.8268	316.20299	19192.165	7259.3462	505.13351
	270	506.35428	-76.724088	583.07837	302.33359	18754.293	7259.3462	506.35428
	280	505.89316	-65.402434	571.29559	296.22407	18818.602	7259.3462	505.89316
	290	505.77396	-66.010872	571.78483	296.47775	18766.322	7259.3462	505.77396
	300	506.60736	-43.035538	549.6429	284.99687	18570.721	7259.3462	506.60736
	310	505.8875	-63.855951	569.74345	295.41927	18606.509	7259.3462	505.8875
	320	505.55703	-83.432158	588.98919	305.39843	18779.527	7259.3462	505.55703
	330	505.48174	-83.000521	588.48226	305.13558	18889.422	7259.3462	505.48174
	340	505.89004	-79.50987	585.39991	303.53734	18780.048	7259.3462	505.89004
	350	506.06479	-70.239537	576.30433	298.82117	19257.92	7259.3462	506.06479
	360	505.64559	-72.237695	577.88329	299.63988	19622.643	7259.3462	505.64559
	370	506.39913	-63.178767	569.5779	295.33343	19613.965	7259.3462	506.39913
	380	506.00499	-65.167425	571.17241	296.1602	19515.571	7259.3462	506.00499
	390	505.87982	-81.188241	587.06806	304.4023	19951.749	7259.3462	505.87982
	400	505.61711	-88.190299	593.80741	307.89674	19928.026	7259.3462	505.61711
	410	505.90305	-77.944698	583.84774	302.73252	20026.04	7259.3462	505.90305
	420	505.8845	-88.175736	594.06024	308.02783	19681.233	7259.3462	505.8845
	430	505.51222	-88.189542	593.70176	307.84196	19597.178	7259.3462	505.51222
	440	506.59247	-67.155024	573.74749	297.49541	19414.956	7259.3462	506.59247
	450	506.08035	-79.412884	585.49324	303.58573	19660.379	7259.3462	506.08035
	460	505.85398	-78.139371	583.99335	302.80802	19839.2	7259.3462	505.85398
	470	505.52746	-91.366092	596.89356	309.49694	19967.103	7259.3462	505.52746
	480	506.56677	-68.023104	574.58987	297.9322	19509.444	7259.3462	506.56677
	490	505.9614	-70.722982	576.68439	299.01823	19869.214	7259.3462	505.9614
	500	505.53313	-96.808251	602.34138	312.32171	20124.275	7259.3462	505.53313
	510	505.97172	-89.531195	595.50291	308.77588	19958.849	7259.3462	505.97172
	520	505.81776	-87.436585	593.25434	307.60996	20032.259	7259.3462	505.81776
	530	506.16878	-85.963917	592.1327	307.02838	19718.637	7259.3462	506.16878
	540	505.63541	-84.131518	589.76693	305.8017	19398.648	7259.3462	505.63541
	550	505.91355	-90.565073	596.47862	309.28179	19181.742	7259.3462	505.91355
	560	505.92144	-76.968394	582.88984	302.23583	19054.943	7259.3462	505.92144
	570	505.8145	-66.581354	572.39586	296.79457	19053.825	7259.3462	505.8145
	580	505.8356	-86.510937	592.34654	307.13925	18672.912	7259.3462	505.8356
	590	505.74804	-68.140945	573.88899	297.56878	19261.272	7259.3462	505.74804
	600	505.85086	-73.514241	579.36511	300.40822	19446.139	7259.3462	505.85086
	610	506.02327	-79.110869	585.13414	303.39953	19566.03	7259.3462	506.02327
	620	506.0386	-68.51623	574.55483	297.91403	19485.919	7259.3462	506.0386
	630	506.0402	-80.078991	586.11919	303.91029	19782.593	7259.3462	506.0402
	640	505.66558	-83.594904	589.26048	305.53909	19943.544	7259.3462	505.66558
	650	505.82127	-92.55956	598.38083	310.26811	20071.033	7259.3462	505.82127
	660	506.12141	-87.57957	593.70098	307.84155	19925.003	7259.3462	506.12141
	670	505.51251	-96.090326	601.60284	311.93876	19650.826	7259.3462	505.51251
	680	505.9411	-89.268612	595.20972	308.62385	19715.646	7259.3462	505.9411
	690	506.03782	-72.120781	578.1586	299.78263	19737.223	7259.3462	506.03782
	700	506.39114	-77.675924	584.06707	302.84624	19853.168	7259.3462	506.39114
	710	505.7415	-98.673836	604.41533	313.39708	19531.443	7259.3462	505.7415
	720	505.32074	-107.26471	612.58546	317.63339	19464.322	7259.3462	505.32074
	730	506.33394	-94.435471	600.76941	311.50662	19623.986	7259.3462	506.33394
	740	505.98534	-92.535979	598.52132	310.34096	19910.18	7259.3462	505.98534
	750	505.72021	-95.726901	601.44711	311.85802	20240.866	7259.3462	505.72021
	760	505.85502	-91.695201	597.55022	309.83743	20421.699	7259.3462	505.85502
	770	506.00926	-79.760725	585.76998	303.72923	20632.294	7259.3462	506.00926
	780	505.81005	-89.050094	594.86015	308.44259	20878.58	7259.3462	505.81005
	790	505.90348	-88.323543	594.22702	308.11431	20789.906	7259.3462	505.90348
	800	505.71664	-89.670482	595.38712	308.71583	20725.971	7259.3462	505.71664
	810	505.98499	-84.601592	590.58658	306.22669	20963.043	7259.3462	505.98499
	820	505.58917	-101.69843	607.2876	314.88639	20818.814	7259.3462	505.58917
	830	505.92815	-82.993407	588.92155	305.36336	20597.637	7259.3462	505.92815
	840	506.57434	-73.078499	579.65284	300.55741	20370.226	7259.3462	506.57434
	850	505.28804	-104.57037	609.85841	316.21938	20661.758	7259.3462	505.28804
	860	505.87739	-85.870939	591.74833	306.82908	20560.03	7259.3462	505.87739
	870	505.96475	-90.209904	596.17465	309.12418	20789.511	7259.3462	505.96475
	880	506.12277	-88.94623	595.069	308.55089	20827.93	7259.3462	506.12277
	890	505.47777	-96.591661	602.06943	312.1807	20640.9	7259.3462	505.47777
	900	505.72437	-91.022485	596.74685	309.42088	20627.807	7259.3462	505.72437
	910	506.79629	-60.697245	567.49353	294.25266	20112.76	7259.3462	506.79629
	920	505.95466	-75.799696	581.75435	301.64707	20203.994	7259.3462	505.95466
	930	505.52923	-104.08542	609.61466	316.093	20341.13	7259.3462	505.52923
	940	505.73507	-92.331379	598.06644	310.1051	20501.735	7259.3462	505.73507
	950	506.20911	-68.594826	574.80394	298.04319	20366.766	7259.3462	506.20911
	960	505.89691	-90.662866	596.55978	309.32387	20121.931	7259.3462	505.89691
	970	505.72677	-74.727452	580.45422	300.97294	20410.924	7259.3462	505.72677
	980	506.49376	-67.109123	573.60288	297.42043	20339.101	7259.3462	506.49376
	990	505.73497	-87.222338	592.95731	307.45595	20464.965	7259.3462	505.73497
	1000	505.6352	-88.020203	593.6554	307.81792	20476.453	7259.3462	505.6352
	1010	506.49818	-87.104807	593.60299	307.79074	20103.513	7259.3462	506.49818
	1020	505.7729	-86.487471	592.26037	307.09458	19621.467	7259.3462	505.7729
	1030	505.89191	-94.385852	600.27776	311.25169	19618.981	7259.3462	505.89191
	1040	505.62593	-114.84436	620.47028	321.72178	19445.855	7259.3462	505.62593
	1050	506.28876	-86.338761	592.62752	307.28495	19178.768	7259.3462	506.28876
	1060	506.10387	-100.83804	606.94191	314.70714	19063.293	7259.3462	506.10387
	1070	505.055	-111.30399	616.35899	319.59002	19309.568	7259.3462	505.055
	1080	506.61057	-74.094816	580.70539	301.10317	19402.083	7259.3462	506.61057
	1090	506.23514	-78.539639	584.77478	303.2132	19345.859	7259.3462	506.23514
	1100	505.52127	-100.78253	606.3038	314.37627	19425.88	7259.3462	505.52127
	1110	505.35431	-109.32278	614.67709	318.71793	19582.889	7259.3462	505.35431
	1120	506.10205	-89.653954	595.756	308.90711	19781.713	7259.3462	506.10205
	1130	506.1469	-82.129415	588.27631	305.02879	19882.9	7259.3462	506.1469
	1140	505.67117	-86.554923	592.22609	307.0768	19789.714	7259.3462	505.67117
	1150	506.05957	-77.606572	583.66614	302.63836	19885.853	7259.3462	506.05957
	1160	506.53175	-66.424439	572.95619	297.08511	20290.81	7259.3462	506.53175
	1170	505.74226	-99.50192	605.24418	313.82685	20488.503	7259.3462	505.74226
	1180	505.30331	-114.67204	619.97535	321.46515	20609.761	7259.3462	505.30331
	1190	506.09537	-88.463903	594.55927	308.28659	20632.278	7259.3462	506.09537
	1200	506.09271	-83.617804	589.71052	305.77244	20767.32	7259.3462	506.09271
	1210	505.55032	-80.983471	586.53379	304.12527	21085.601	7259.3462	505.55032
	1220	506.46687	-47.848522	554.31539	287.41962	20686.371	7259.3462	506.46687
	1230	506.27911	-61.764903	568.04401	294.53808	20332.606	7259.3462	506.27911
	1240	505.63213	-79.700807	585.33293	303.50261	20713.891	7259.3462	505.63213
	1250	505.37203	-79.831738	585.20377	303.43564	20790.989	7259.3462	505.37203
	1260	506.31597	-55.269125	561.5851	291.18906	20612.049	7259.3462	506.31597
	1270	506.51876	-46.491851	553.01061	286.74307	20068.097	7259.3462	506.51876
	1280	505.30029	-89.700778	595.00106	308.51566	19676.138	7259.3462	505.30029
	1290	505.6979	-94.817642	600.51554	311.37499	19496.529	7259.3462	505.6979
	1300	506.62769	-63.352845	569.98053	295.5422	19181.349	7259.3462	506.62769
	1310	505.87213	-88.739097	594.61123	308.31353	19256.672	7259.3462	505.87213
	1320	505.29059	-96.246965	601.53756	311.90492	19161.226	7259.3462	505.29059
	1330	505.76413	-72.693209	578.45734	299.93753	19203.399	7259.3462	505.76413
	1340	506.82376	-51.996359	558.82012	289.75538	19406.652	7259.3462	506.82376
	1350	505.66571	-70.191519	575.85723	298.58934	19782.85	7259.3462	505.66571
	1360	505.37654	-98.879988	604.25653	313.31474	19831.512	7259.3462	505.37654
	1370	506.21758	-75.887657	582.10524	301.82901	19789.526	7259.3462	506.21758
	1380	505.73207	-76.434917	582.16699	301.86103	20533.685	7259.3462	505.73207
	1390	506.01954	-95.662952	601.6825	311.98007	20970.38	7259.3462	506.01954
	1400	505.74062	-83.669985	589.4106	305.61694	20625.377	7259.3462	505.74062
	1410	506.52662	-79.843277	586.3699	304.04029	20328.982	7259.3462	506.52662
	1420	505.2201	-116.52448	621.74459	322.38252	20616.534	7259.3462	505.2201
	1430	505.69813	-89.673551	595.37168	308.70783	20747.94	7259.3462	505.69813
	1440	506.74264	-73.965293	580.70793	301.10449	20477	7259.3462	506.74264
	1450	505.45147	-93.808871	599.26034	310.72415	20434.893	7259.3462	505.45147
	1460	505.32505	-99.560398	604.88545	313.64084	20025.203	7259.3462	505.32505
	1470	506.29126	-76.998403	583.28966	302.44315	19653.464	7259.3462	506.29126
	1480	507.04455	-44.035011	551.07956	285.7418	19918.445	7259.3462	507.04455
	1490	505.37988	-97.390649	602.77053	312.54423	19964.042	7259.3462	505.37988
	1500	505.09353	-102.64172	607.73525	315.1185	19811.843	7259.3462	505.09353
	1510	506.33714	-68.842458	575.1796	298.23798	19286.675	7259.3462	506.33714
	1520	506.64919	-61.212051	567.86124	294.44332	19197.954	7259.3462	506.64919
	1530	505.60459	-74.712135	580.31673	300.90164	19460.069	7259.3462	505.60459
	1540	505.52567	-86.483105	592.00877	306.96412	19436.225	7259.3462	505.52567
	1550	506.61171	-49.765597	556.3773	288.48875	19476.698	7259.3462	506.61171
	1560	506.01369	-56.261595	562.27529	291.54693	19511.575	7259.3462	506.01369
	1570	506.03898	-66.900457	572.93944	297.07643	19371.137	7259.3462	506.03898
	1580	505.70838	-82.000101	587.70848	304.73436	19002.325	7259.3462	505.70838
	1590	505.99231	-76.723884	582.7162	302.1458	19027.281	7259.3462	505.99231
	1600	505.79841	-78.913812	584.71222	303.18076	19032.902	7259.3462	505.79841
	1610	506.235	-55.217207	561.45221	291.12015	19240.159	7259.3462	506.235
	1620	506.41425	-42.485937	548.90018	284.61177	19694.596	7259.3462	506.41425
	1630	505.2248	-72.658344	577.88314	299.6398	19773.742	7259.3462	505.2248
	1640	505.7159	-62.97219	568.68809	294.87205	19865.132	7259.3462	505.7159
	1650	506.8219	-24.163851	530.98575	275.3229	19893.732	7259.3462	506.8219
	1660	506.04067	-59.89053	565.9312	293.44256	20144.476	7259.3462	506.04067
	1670	505.1824	-74.893452	580.07585	300.77675	20065.095	7259.3462	505.1824
	1680	505.55433	-66.141403	571.69574	296.43155	20127.958	7259.3462	505.55433
	1690	506.94322	-42.019815	548.96304	284.64436	19789.061	7259.3462	506.94322
	1700	506.19568	-49.639646	555.83532	288.20772	19480.094	7259.3462	506.19568
	1710	504.8435	-102.79107	607.63457	315.06629	19491.433	7259.3462	504.8435
	1720	506.16244	-61.952073	568.11451	294.57464	19447.295	7259.3462	506.16244
	1730	506.39189	-52.009063	558.40096	289.53804	19191.461	7259.3462	506.39189
	1740	506.22386	-65.636828	571.86069	296.51708	19074.947	7259.3462	506.22386
	1750	505.4789	-80.56862	586.04752	303.87313	19221.864	7259.3462	505.4789
	1760	505.60348	-89.190293	594.79378	308.40818	19267.523	7259.3462	505.60348
	1770	506.17696	-56.070002	562.24696	291.53224	19537.762	7259.3462	506.17696
	1780	505.90501	-55.872234	561.77724	291.28868	19748.061	7259.3462	505.90501
	1790	506.4648	-54.691918	561.15672	290.96693	19579.249	7259.3462	506.4648
	1800	505.53958	-79.865372	585.40495	303.53995	19946.521	7259.3462	505.53958
	1810	505.67186	-75.537953	581.20981	301.36472	20515.411	7259.3462	505.67186
	1820	506.0988	-67.209683	573.30848	297.26778	20621.352	7259.3462	506.0988
	1830	506.17977	-59.031517	565.21128	293.06928	20478.611	7259.3462	506.17977
	1840	506.07092	-75.676047	581.74697	301.64324	20290.828	7259.3462	506.07092
	1850	504.87463	-105.47671	610.35134	316.47497	20711.433	7259.3462	504.87463
	1860	506.72367	-55.945548	562.66921	291.75118	20561.86	7259.3462	506.72367
	1870	506.06443	-71.216118	577.28055	299.32735	20368.038	7259.3462	506.06443
	1880	505.69505	-83.186222	588.88127	305.34247	20014.935	7259.3462	505.69505
	1890	505.60363	-81.378955	586.98258	304.35798	19615.516	7259.3462	505.60363
	1900	506.01184	-83.083384	589.09523	305.45341	19951.304	7259.3462	506.01184
	1910	506.25535	-51.709051	557.9644	289.31168	19942.605	7259.3462	506.25535
	1920	505.39529	-86.467162	591.86245	306.88825	20160.557	7259.3462	505.39529
	1930	506.25496	-72.194789	578.44975	299.93359	19802.512	7259.3462	506.25496
	1940	505.97494	-59.668437	565.64337	293.29332	19800.548	7259.3462	505.97494
	1950	505.91336	-79.859806	585.77317	303.73088	20179.818	7259.3462	505.91336
	1960	505.66146	-79.673888	585.33535	303.50387	20172.418	7259.3462	505.66146
	1970	505.9053	-83.119243	589.02454	305.41676	20115.986	7259.3462	505.9053
	1980	506.08083	-75.339646	581.42048	301.47395	20179.574	7259.3462	506.08083
	1990	505.65712	-80.348606	586.00573	303.85146	20263.212	7259.3462	505.65712
	2000	505.98118	-80.052933	586.03412	303.86618	20652.888	7259.3462	505.98118
	2010	506.26041	-74.826246	581.08665	301.30086	20455.976	7259.3462	506.26041
	2020	505.64246	-98.900244	604.5427	313.46312	20499.736	7259.3462	505.64246
	2030	505.58686	-99.579332	605.16619	313.78641	20373.013	7259.3462	505.58686
	2040	505.90713	-90.982139	596.88927	309.49472	20292.209	7259.3462	505.90713
	2050	506.02024	-72.919173	578.93941	300.18749	20348.323	7259.3462	506.02024
	2060	505.7617	-69.369631	575.13133	298.21295	20450.38	7259.3462	505.7617
	2070	505.79909	-87.13049	592.92958	307.44157	20282.139	7259.3462	505.79909
	2080	506.3456	-68.357333	574.70293	297.99082	20190.187	7259.3462	506.3456
	2090	505.57588	-86.2675	591.84338	306.87836	20296.859	7259.3462	505.57588
	2100	505.5024	-98.043921	603.54632	312.94649	20601.708	7259.3462	505.5024
	2110	506.3945	-55.459471	561.85397	291.32847	20388.404	7259.3462	506.3945
	2120	506.07058	-67.614383	573.68496	297.46299	19997.907	7259.3462	506.07058
	2130	505.60575	-91.808989	597.41474	309.76718	19964.096	7259.3462	505.60575
	2140	505.75965	-90.091792	595.85144	308.95659	19937.111	7259.3462	505.75965
	2150	506.16501	-80.298335	586.46334	304.08874	19835.618	7259.3462	506.16501
	2160	506.08648	-74.494584	580.58107	301.03871	19865.787	7259.3462	506.08648
	2170	505.4885	-87.037277	592.52578	307.23219	19875.244	7259.3462	505.4885
	2180	505.91334	-88.713143	594.62648	308.32144	19691.397	7259.3462	505.91334
	2190	506.19362	-70.047146	576.24077	298.78821	19648.162	7259.3462	506.19362
	2200	505.57106	-95.769789	601.34085	311.80292	19572.606	7259.3462	505.57106
	2210	506.12145	-79.03482	585.15627	303.41101	19517.397	7259.3462	506.12145
	2220	505.62445	-74.45956	580.08401	300.78098	19464.628	7259.3462	505.62445
	2230	505.93433	-69.465583	575.39992	298.35222	19267.022	7259.3462	505.93433
	2240	505.71218	-67.42695	573.13913	297.17997	19524.023	7259.3462	505.71218
	2250	506.20749	-68.060931	574.26842	297.76552	19530.933	7259.3462	506.20749
	2260	506.44352	-69.216852	575.66038	298.48727	19370.035	7259.3462	506.44352
	2270	505.13987	-93.727737	598.86761	310.52051	19680.221	7259.3462	505.13987
	2280	505.60127	-91.896374	597.49765	309.81017	20175.789	7259.3462	505.60127
	2290	506.03744	-66.389349	572.42679	296.81061	20276.544	7259.3462	506.03744
	2300	506.10535	-54.061036	560.16639	290.45344	20569.564	7259.3462	506.10535
	2310	505.72569	-78.81847	584.54416	303.09363	20312.991	7259.3462	505.72569
	2320	505.49355	-74.048296	579.54184	300.49986	19667.717	7259.3462	505.49355
	2330	506.48093	-56.7178	563.19873	292.02574	19696.394	7259.3462	506.48093
	2340	505.63313	-77.028676	582.66181	302.1176	19763.637	7259.3462	505.63313
	2350	505.78092	-73.973527	579.75445	300.6101	19486.443	7259.3462	505.78092
	2360	506.01726	-67.91864	573.9359	297.5931	19395.335	7259.3462	506.01726
	2370	505.67043	-65.762419	571.43285	296.29524	19462.964	7259.3462	505.67043
	2380	506.23408	-54.158836	560.39291	290.57089	19600.493	7259.3462	506.23408
	2390	505.75458	-74.008512	579.76309	300.61458	19635.748	7259.3462	505.75458
	2400	506.1062	-76.114709	582.2209	301.88899	19821.692	7259.3462	506.1062
	2410	505.30913	-100.2323	605.54143	313.98097	19734.17	7259.3462	505.30913
	2420	505.71982	-100.4863	606.20612	314.32563	19888.209	7259.3462	505.71982
	2430	506.11774	-81.58597	587.70371	304.73189	20012.875	7259.3462	506.11774
	2440	505.97769	-88.248346	594.22603	308.1138	20335.436	7259.3462	505.97769
	2450	505.94954	-74.86789	580.81743	301.16126	20621.071	7259.3462	505.94954
	2460	505.58316	-74.891895	580.47505	300.98374	20406.402	7259.3462	505.58316
	2470	506.30166	-74.198687	580.50035	300.99686	20228.456	7259.3462	506.30166
	2480	505.31052	-93.605306	598.91583	310.54552	20121.589	7259.3462	505.31052
	2490	505.9024	-82.8846	588.787	305.29359	20091.76	7259.3462	505.9024
	2500	506.27178	-76.749056	583.02084	302.30376	19797.886	7259.3462	506.27178
	2510	505.78148	-64.710733	570.49221	295.80751	19716.444	7259.3462	505.78148
	2520	506.14581	-72.34048	578.48629	299.95254	19668.672	7259.3462	506.14581
	2530	505.26793	-100.86945	606.13739	314.28999	20010.613	7259.3462	505.26793
	2540	506.31863	-47.060522	553.37915	286.93417	20084.22	7259.3462	506.31863
	2550	505.68955	-75.769053	581.45861	301.49372	19818.104	7259.3462	505.68955
	2560	505.77166	-64.033296	569.80495	295.45116	19469.938	7259.3462	505.77166
	2570	506.18373	-31.361726	537.54546	278.72419	19345.794	7259.3462	506.18373
	2580	505.93753	-63.187223	569.12475	295.09846	19375.347	7259.3462	505.93753
	2590	506.14246	-61.167433	567.30989	294.15743	19438.814	7259.3462	506.14246
	2600	505.18255	-100.61132	605.79387	314.11187	19750.788	7259.3462	505.18255
	2610	506.02891	-86.076499	592.10541	307.01423	19653.511	7259.3462	506.02891
	2620	505.66945	-64.867861	570.53731	295.83089	19773.102	7259.3462	505.66945
	2630	506.07463	-75.211344	581.28598	301.40421	19700.644	7259.3462	506.07463
	2640	506.31505	-61.084008	567.39905	294.20367	19613.382	7259.3462	506.31505
	2650	505.73897	-77.798066	583.53704	302.57142	19861.573	7259.3462	505.73897
	2660	505.58627	-86.953759	592.54003	307.23958	20157.516	7259.3462	505.58627
	2670	505.54542	-60.545786	566.09121	293.52553	20105.276	7259.3462	505.54542
	2680	506.42055	-61.94477	568.36532	294.70469	19777.735	7259.3462	506.42055
	2690	506.08734	-64.721268	570.80861	295.97156	19646.849	7259.3462	506.08734
	2700	505.49109	-87.206433	592.69752	307.32125	19869.059	7259.3462	505.49109
	2710	505.5273	-95.055818	600.58312	311.41003	20050.898	7259.3462	505.5273
	2720	506.18504	-60.926882	567.11192	294.05478	19974.549	7259.3462	506.18504
	2730	506.01332	-79.771599	585.78492	303.73697	20190.054	7259.3462	506.01332
	2740	505.62017	-77.537113	583.15729	302.37451	20237.806	7259.3462	505.62017
	2750	505.81106	-72.415898	578.22696	299.81807	20183.963	7259.3462	505.81106
	2760	506.00496	-68.742284	574.74724	298.0138	20219.324	7259.3462	506.00496
	2770	506.02176	-59.718378	565.74014	293.3435	19502.034	7259.3462	506.02176
	2780	505.59748	-74.123103	579.72058	300.59253	19270.922	7259.3462	505.59748
	2790	506.08703	-66.0148	572.10183	296.64211	19046.871	7259.3462	506.08703
	2800	505.58535	-75.540985	581.12634	301.32144	19154.629	7259.3462	505.58535
	2810	505.88933	-71.780472	577.6698	299.52918	18545.771	7259.3462	505.88933
	2820	505.99413	-72.145354	578.13949	299.77272	18493.574	7259.3462	505.99413
	2830	506.09411	-60.958058	567.05217	294.0238	18788.246	7259.3462	506.09411
	2840	505.75709	-64.614931	570.37202	295.74519	19158.357	7259.3462	505.75709
	2850	505.64404	-91.832011	597.47605	309.79897	19104.91	7259.3462	505.64404
	2860	506.23137	-67.011363	573.24273	297.23369	19034.443	7259.3462	506.23137
	2870	505.32267	-91.482584	596.80525	309.45115	19261.179	7259.3462	505.32267
	2880	506.29698	-75.469986	581.76696	301.65361	19302.491	7259.3462	506.29698
	2890	505.65571	-62.681411	568.33712	294.69007	19284.032	7259.3462	505.65571
	2900	506.13106	-73.527991	579.65905	300.56063	19040.45	7259.3462	506.13106
	2910	505.61992	-79.068257	584.68818	303.1683	19139.949	7259.3462	505.61992
	2920	505.55065	-59.563145	565.1138	293.01873	19502.448	7259.3462	505.55065
	2930	506.20199	-67.001075	573.20306	297.21312	19572.574	7259.3462	506.20199
	2940	505.35738	-58.520931	563.87831	292.37811	19627.624	7259.3462	505.35738
	2950	506.16657	-54.677323	560.84389	290.80473	19385.112	7259.3462	506.16657
	2960	505.8245	-64.992648	570.81714	295.97599	19159.375	7259.3462	505.8245
	2970	506.14049	-45.929842	552.07033	286.25553	19011.319	7259.3462	506.14049
	2980	505.41918	-94.007351	599.42653	310.81032	19624.552	7259.3462	505.41918
	2990	505.67607	-66.683186	572.35926	296.7756	19394.667	7259.3462	505.67607
	3000	505.76583	-68.736343	574.50217	297.88672	18951.531	7259.3462	505.76583
	3010	506.41749	-62.311431	568.72892	294.89322	18865.841	7259.3462	506.41749
	3020	505.83342	-60.319432	566.15285	293.55749	19258.891	7259.3462	505.83342
	3030	505.59739	-83.455716	589.0531	305.43157	19500.596	7259.3462	505.59739
	3040	505.90369	-71.973896	577.87759	299.63692	19387.967	7259.3462	505.90369
	3050	505.50672	-77.896646	583.40336	302.5021	19564.998	7259.3462	505.50672
	3060	506.19409	-67.492485	573.68658	297.46383	19899.991	7259.3462	506.19409
	3070	505.76829	-52.076036	557.84432	289.24942	19696.633	7259.3462	505.76829
	3080	506.21851	-53.600494	559.81901	290.27331	19916.145	7259.3462	506.21851
	3090	505.8502	-69.568863	575.41907	298.36214	19745.261	7259.3462	505.8502
	3100	505.78132	-74.863451	580.64477	301.07174	19849.057	7259.3462	505.78132
	3110	505.95076	-82.972044	588.9228	305.36401	20179.14	7259.3462	505.95076
	3120	505.55394	-73.551471	579.10541	300.27356	20367.599	7259.3462	505.55394
	3130	505.87968	-67.826227	573.7059	297.47385	20498.353	7259.3462	505.87968
	3140	506.29704	-63.597522	569.89457	295.49762	19837.964	7259.3462	506.29704
	3150	506.24537	-60.260893	566.50626	293.74074	19699.426	7259.3462	506.24537
	3160	505.39204	-96.138555	601.53059	311.9013	20011.501	7259.3462	505.39204
	3170	505.91717	-83.142168	589.05934	305.4348	20034.744	7259.3462	505.91717
	3180	505.74998	-77.733281	583.48326	302.54353	20088.912	7259.3462	505.74998
	3190	505.98537	-78.349368	584.33474	302.98503	19610.198	7259.3462	505.98537
	3200	505.71145	-69.412244	575.12369	298.20899	19092.124	7259.3462	505.71145
	3210	505.76327	-77.310002	583.07327	302.33095	19016.032	7259.3462	505.76327
	3220	506.33289	-56.253299	562.58619	291.70814	18533.325	7259.3462	506.33289
	3230	505.55049	-81.624881	587.17537	304.45794	18857.044	7259.3462	505.55049
	3240	505.32283	-96.748103	602.07093	312.18148	18786.854	7259.3462	505.32283
	3250	506.2046	-51.89971	558.10431	289.38422	18609.388	7259.3462	506.2046
	3260	505.70453	-76.222142	581.92667	301.73642	19133.029	7259.3462	505.70453
	3270	506.07783	-57.362783	563.44062	292.15117	19063.975	7259.3462	506.07783
	3280	505.61062	-66.387884	571.99851	296.58854	19131.085	7259.3462	505.61062
	3290	505.50948	-85.224868	590.73434	306.30331	18931.596	7259.3462	505.50948
	3300	506.30617	-54.112613	560.41879	290.58431	18604.341	7259.3462	506.30617
	3310	505.26387	-92.129063	597.39293	309.75588	18774.345	7259.3462	505.26387
	3320	506.22892	-57.451201	563.68013	292.27535	18886.789	7259.3462	506.22892
	3330	506.08919	-53.183143	559.27233	289.98985	18835.118	7259.3462	506.08919
	3340	505.3907	-99.157582	604.54829	313.46602	18884.282	7259.3462	505.3907
	3350	505.90374	-59.174768	565.0785	293.00043	18628.961	7259.3462	505.90374
	3360	506.12193	-72.436865	578.55879	299.99013	18692.289	7259.3462	506.12193
	3370	506.03198	-74.62091	580.65289	301.07595	18767.79	7259.3462	506.03198
	3380	505.51313	-65.781992	571.29512	296.22383	19176.941	7259.3462	505.51313
	3390	506.0515	-86.299291	592.35079	307.14146	19574.17	7259.3462	506.0515
	3400	506.17218	-48.632031	554.80421	287.67308	19595.578	7259.3462	506.17218
	3410	505.72031	-80.989537	586.70985	304.21656	20233.205	7259.3462	505.72031
	3420	505.33381	-88.49942	593.83323	307.91013	20495.086	7259.3462	505.33381
	3430	506.01061	-47.516413	553.52703	287.01084	20457.635	7259.3462	506.01061
	3440	506.12092	-76.675758	582.79668	302.18753	20481.776	7259.3462	506.12092
	3450	505.48433	-68.221213	573.70555	297.47366	20190.34	7259.3462	505.48433
	3460	505.81984	-73.496633	579.31647	300.383	19960.272	7259.3462	505.81984
	3470	506.05586	-76.195879	582.25174	301.90497	19869.864	7259.3462	506.05586
	3480	505.63423	-61.751579	567.38581	294.1968	19644.257	7259.3462	505.63423
	3490	506.09744	-72.812254	578.9097	300.17208	19756.21	7259.3462	506.09744
	3500	505.81067	-60.687508	566.49818	293.73655	19554.54	7259.3462	505.81067
	3510	506.02261	-72.852841	578.87545	300.15433	20026.739	7259.3462	506.02261
	3520	505.487	-75.830589	581.31759	301.4206	20234.332	7259.3462	505.487
	3530	505.68728	-67.816767	573.50405	297.36918	19494.014	7259.3462	505.68728
	3540	506.71082	-48.736776	555.4476	288.00668	19325.166	7259.3462	506.71082
	3550	505.29396	-80.889031	586.18299	303.94338	19210.427	7259.3462	505.29396
	3560	505.62384	-81.473249	587.09709	304.41735	19248.036	7259.3462	505.62384
	3570	505.94102	-62.673361	568.61438	294.83383	19184.491	7259.3462	505.94102
	3580	506.28442	-63.184708	569.46913	295.27702	18922.793	7259.3462	506.28442
	3590	505.56776	-75.229145	580.7969	301.15062	19038.135	7259.3462	505.56776
	3600	505.69389	-69.171187	574.86508	298.07489	19135.012	7259.3462	505.69389
	3610	506.14224	-57.865924	564.00817	292.44545	19024.267	7259.3462	506.14224
	3620	505.80197	-62.157968	567.95993	294.49449	19269.839	7259.3462	505.80197
	3630	505.84508	-69.828885	575.67397	298.49431	18940.05	7259.3462	505.84508
	3640	505.80789	-65.309577	571.11747	296.13171	19017.254	7259.3462	505.80789
	3650	506.16563	-61.988954	568.15458	294.59542	19192.264	7259.3462	506.16563
	3660	505.53892	-77.619379	583.1583	302.37504	19112.356	7259.3462	505.53892
	3670	505.93019	-67.538652	573.46884	297.35093	19108.765	7259.3462	505.93019
	3680	505.81977	-65.505627	571.3254	296.23953	19278.144	7259.3462	505.81977
	3690	505.83681	-61.415536	567.25235	294.1276	19735.21	7259.3462	505.83681
	3700	505.23204	-71.081991	576.31403	298.8262	20230.85	7259.3462	505.23204
	3710	506.07213	-57.740385	563.81251	292.344	19881.798	7259.3462	506.07213
	3720	505.99538	-64.744638	570.74001	295.936	19581.397	7259.3462	505.99538
	3730	505.93314	-75.877007	581.81015	301.676	19233.4	7259.3462	505.93314
	3740	505.75334	-80.52995	586.28329	303.99538	19339.091	7259.3462	505.75334
	3750	505.60013	-82.314869	587.915	304.84145	19853.458	7259.3462	505.60013
	3760	506.09982	-61.415046	567.51487	294.26372	19718.618	7259.3462	506.09982
	3770	505.46764	-88.10319	593.57083	307.77407	19666.235	7259.3462	505.46764
	3780	506.47834	-52.123228	558.60157	289.64206	19364.972	7259.3462	506.47834
	3790	505.86612	-64.428958	570.29508	295.70529	19718.031	7259.3462	505.86612
	3800	505.4526	-84.499279	589.95188	305.89759	20182.119	7259.3462	505.4526
	3810	505.933	-64.18505	570.11805	295.6135	20027.681	7259.3462	505.933
	3820	505.61633	-90.288191	595.90452	308.98411	19863.833	7259.3462	505.61633
	3830	505.98512	-71.893343	577.87846	299.63737	19493.395	7259.3462	505.98512
	3840	505.57677	-74.231756	579.80853	300.63814	19380.895	7259.3462	505.57677
	3850	506.04842	-70.95969	577.00811	299.18609	19555.764	7259.3462	506.04842
	3860	505.98576	-63.523269	569.50903	295.29771	19209.078	7259.3462	505.98576
	3870	505.37976	-91.420427	596.80019	309.44853	19008.352	7259.3462	505.37976
	3880	506.04502	-69.328368	575.37339	298.33846	19165.239	7259.3462	506.04502
	3890	506.01413	-55.931698	561.94582	291.3761	19190.65	7259.3462	506.01413
	3900	505.41223	-78.013876	583.4261	302.5139	19295.358	7259.3462	505.41223
	3910	506.22809	-59.416787	565.64488	293.29411	19040.19	7259.3462	506.22809
	3920	505.99786	-72.458851	578.45671	299.9372	19085.078	7259.3462	505.99786
	3930	505.73684	-83.636008	589.37285	305.59736	19283.859	7259.3462	505.73684
	3940	505.44794	-87.743872	593.19181	307.57754	19541.269	7259.3462	505.44794
	3950	505.84586	-78.857679	584.70353	303.17626	19376.749	7259.3462	505.84586
	3960	506.43371	-55.607016	562.04072	291.4253	19141.877	7259.3462	506.43371
	3970	505.83134	-74.28176	580.1131	300.79606	19532.348	7259.3462	505.83134
	3980	505.5415	-88.246457	593.78796	307.88665	19329.665	7259.3462	505.5415
	3990	506.07622	-75.815419	581.89164	301.71826	19239.125	7259.3462	506.07622
	4000	505.95441	-80.80207	586.75648	304.24074	19300.309	7259.3462	505.95441
	4010	505.53736	-97.041273	602.57863	312.44473	19347.374	7259.3462	505.53736
	4020	506.11819	-65.935492	572.05369	296.61715	19386.26	7259.3462	506.11819
	4030	505.95793	-57.581196	563.53913	292.20224	19448.28	7259.3462	505.95793
	4040	505.94688	-79.815488	585.76237	303.72528	19485.397	7259.3462	505.94688
	4050	505.76582	-69.132053	574.89787	298.0919	19146.01	7259.3462	505.76582
	4060	505.67889	-76.422251	582.10114	301.82689	19319.037	7259.3462	505.67889
	4070	506.07431	-74.304121	580.37843	300.93364	19497.578	7259.3462	506.07431
	4080	505.40897	-65.403345	570.81231	295.97348	19632.424	7259.3462	505.40897
	4090	506.37624	-48.52605	554.90229	287.72393	19735.481	7259.3462	506.37624
	4100	506.11881	-54.56043	560.67924	290.71936	19670.932	7259.3462	506.11881
	4110	505.69661	-68.090248	573.78686	297.51583	19679.718	7259.3462	505.69661
	4120	505.56616	-87.451435	593.01759	307.48721	19777.896	7259.3462	505.56616
	4130	506.2019	-61.973842	568.17574	294.60639	19673.39	7259.3462	506.2019
	4140	505.9584	-68.770376	574.72877	298.00422	19306.467	7259.3462	505.9584
	4150	505.72327	-79.870209	585.59348	303.63771	19482.567	7259.3462	505.72327
	4160	506.16087	-68.462706	574.62358	297.94967	19577.915	7259.3462	506.16087
	4170	505.95409	-74.425293	580.37938	300.93413	19601.697	7259.3462	505.95409
	4180	505.98124	-73.760532	579.74178	300.60352	19325.702	7259.3462	505.98124
	4190	505.71543	-86.695272	592.41071	307.17253	19113.726	7259.3462	505.71543
	4200	505.76392	-96.165661	601.92958	312.10819	19014.538	7259.3462	505.76392
	4210	505.82652	-95.681543	601.50806	311.88962	19225.572	7259.3462	505.82652
	4220	505.25963	-98.732032	603.99166	313.1774	19525.259	7259.3462	505.25963
	4230	506.16112	-66.063788	572.2249	296.70593	19608.711	7259.3462	506.16112
	4240	505.94223	-70.214391	576.15662	298.74458	19486.072	7259.3462	505.94223
	4250	505.77986	-76.357118	582.13698	301.84547	19454.661	7259.3462	505.77986
	4260	505.72021	-83.04761	588.76782	305.28364	19626.805	7259.3462	505.72021
	4270	506.02769	-73.722786	579.75048	300.60804	19687.628	7259.3462	506.02769
	4280	506.10164	-68.628805	574.73044	298.00509	19727.095	7259.3462	506.10164
	4290	505.25189	-74.948763	580.20065	300.84146	20139.751	7259.3462	505.25189
	4300	506.33391	-47.062176	553.39609	286.94295	19814.249	7259.3462	506.33391
	4310	506.04296	-60.021556	566.06452	293.51169	19858.154	7259.3462	506.04296
	4320	505.83638	-70.781065	576.61744	298.98352	19880.454	7259.3462	505.83638
	4330	505.22161	-89.769	594.99061	308.51024	20064.923	7259.3462	505.22161
	4340	506.28374	-59.545962	565.8297	293.38994	19742.871	7259.3462	506.28374
	4350	506.23528	-52.007409	558.24269	289.45597	19703.25	7259.3462	506.23528
	4360	505.53199	-80.99089	586.52288	304.11961	19950.715	7259.3462	505.53199
	4370	505.83379	-77.239531	583.07332	302.33097	19854.87	7259.3462	505.83379
	4380	506.03884	-73.551196	579.59004	300.52485	19810.546	7259.3462	506.03884
	4390	505.80801	-91.798015	597.60603	309.86637	19799.434	7259.3462	505.80801
	4400	505.17533	-77.912636	583.08797	302.33857	20098.53	7259.3462	505.17533
	4410	506.4522	-41.092417	547.54462	283.90889	20415.631	7259.3462	506.4522
	4420	506.33817	-51.713484	558.05165	289.35692	20128.354	7259.3462	506.33817
	4430	505.44694	-74.575482	580.02242	300.74904	20008.988	7259.3462	505.44694
	4440	505.66561	-86.836721	592.50233	307.22004	19861.157	7259.3462	505.66561
	4450	505.80785	-79.60283	585.41068	303.54293	19934.753	7259.3462	505.80785
	4460	505.8981	-52.715987	558.61409	289.64855	20078.165	7259.3462	505.8981
	4470	505.69058	-58.878019	564.5686	292.73604	19840.536	7259.3462	505.69058
	4480	506.33836	-46.861823	553.20018	286.84137	19409.357	7259.3462	506.33836
	4490	506.21168	-56.415371	562.62705	291.72932	19494.708	7259.3462	506.21168
	4500	505.53241	-83.435975	588.96838	305.38764	19551.926	7259.3462	505.53241
	4510	505.72267	-75.369633	581.0923	301.30379	19442.943	7259.3462	505.72267
	4520	506.0073	-71.269966	577.27727	299.32565	19402.006	7259.3462	506.0073
	4530	506.403	-53.509361	559.91236	290.32172	19406.716	7259.3462	506.403
	4540	505.58661	-69.410912	574.99752	298.14357	19614.787	7259.3462	505.58661
	4550	506.26424	-74.268819	580.53306	301.01381	19582.164	7259.3462	506.26424
	4560	506.20165	-70.813047	577.0147	299.1895	19694.223	7259.3462	506.20165
	4570	505.3796	-90.08361	595.46321	308.75529	20046.609	7259.3462	505.3796
	4580	506.22247	-82.758519	588.98099	305.39418	20046.37	7259.3462	506.22247
	4590	505.80173	-72.920309	578.72204	300.07478	20078.433	7259.3462	505.80173
	4600	506.13683	-78.004752	584.14158	302.88488	19942.728	7259.3462	506.13683
	4610	505.85038	-82.478063	588.32844	305.05582	20105.583	7259.3462	505.85038
	4620	505.66114	-79.323021	584.98416	303.32177	20527.651	7259.3462	505.66114
	4630	506.44448	-72.097995	578.54247	299.98167	20175.337	7259.3462	506.44448
	4640	505.41605	-73.107951	578.524	299.97209	20415.606	7259.3462	505.41605
	4650	506.3292	-57.935674	564.26487	292.57855	20331.822	7259.3462	506.3292
	4660	505.95014	-64.735139	570.68528	295.90761	20476.591	7259.3462	505.95014
	4670	505.86724	-73.587746	579.45499	300.45482	20168.524	7259.3462	505.86724
	4680	505.90647	-74.781253	580.68772	301.09401	19569.561	7259.3462	505.90647
	4690	506.035	-69.455737	575.49074	298.39931	19312.837	7259.3462	506.035
	4700	506.03061	-70.385197	576.41581	298.87897	19210.932	7259.3462	506.03061
	4710	505.74084	-71.472031	577.21287	299.29226	19026.679	7259.3462	505.74084
	4720	506.07175	-62.396091	568.46784	294.75785	19085.09	7259.3462	506.07175
	4730	506.16962	-56.241628	562.41125	291.61743	18986.283	7259.3462	506.16962
	4740	505.88129	-75.59028	581.47157	301.50045	19339.942	7259.3462	505.88129
	4750	505.3453	-95.935591	601.2809	311.77183	19793.22	7259.3462	505.3453
	4760	506.35243	-63.775582	570.12801	295.61867	19695.564	7259.3462	506.35243
	4770	505.86414	-77.55373	583.41787	302.50963	19699.338	7259.3462	505.86414
	4780	506.00162	-71.637781	577.6394	299.51342	19566.626	7259.3462	506.00162
	4790	506.0336	-61.882375	567.91597	294.47169	20163.593	7259.3462	506.0336
	4800	506.02258	-70.527079	576.54966	298.94837	20236.525	7259.3462	506.02258
	4810	506.0089	-64.526089	570.53498	295.82969	20048.704	7259.3462	506.0089
	4820	505.61615	-67.595856	573.212	297.21775	20051.22	7259.3462	505.61615
	4830	506.08435	-69.128074	575.21242	298.255	19681.045	7259.3462	506.08435
	4840	505.94653	-73.791782	579.73831	300.60173	19711.251	7259.3462	505.94653
	4850	505.85209	-84.673539	590.52563	306.19509	20025.491	7259.3462	505.85209
	4860	505.91978	-71.113071	577.03285	299.19891	20187.818	7259.3462	505.91978
	4870	505.90072	-84.917522	590.81824	306.34681	20196.584	7259.3462	505.90072
	4880	505.50809	-81.663192	587.17128	304.45582	20226.401	7259.3462	505.50809
	4890	505.99051	-59.215291	565.2058	293.06644	20602.055	7259.3462	505.99051
	4900	505.91466	-67.709763	573.62442	297.4316	20556.035	7259.3462	505.91466
	4910	505.77593	-56.135055	561.91099	291.35803	20008.02	7259.3462	505.77593
	4920	506.0268	-76.20416	582.23096	301.8942	19832.518	7259.3462	506.0268
	4930	505.43419	-71.392879	576.82707	299.09221	19775.307	7259.3462	505.43419
	4940	506.25159	-51.828946	558.08054	289.37189	19587.566	7259.3462	506.25159
	4950	505.47248	-81.706325	587.1788	304.45972	19656.787	7259.3462	505.47248
	4960	505.96971	-60.223845	566.19356	293.5786	18910.869	7259.3462	505.96971
	4970	505.81233	-76.866646	582.67898	302.1265	18702.588	7259.3462	505.81233
	4980	505.63324	-63.51012	569.14336	295.10811	18699.723	7259.3462	505.63324
	4990	506.1786	-50.274373	556.45297	288.52798	18931.551	7259.3462	506.1786
