#	Time(fs)	Total Energy(kcal/mol)	Potential Energy(kcal/mol)	Kinetic Energy(kcal/mol)	Temperature(K)	Pressure(atm)	Volume(A^3)	Conserved Quantity(kcal/mol)
	0	730.17148	101.42767	628.74382	326.01171	18987.845	7259.3462	730.17148
	10	724.17309	74.579827	649.59326	336.82241	19460.266	7259.3462	724.96769
	20	733.73982	69.911297	663.82853	344.20358	19602.667	7259.3462	736.91062
	30	725.46427	77.927124	647.53714	335.75629	19319.883	7259.3462	732.58817
	40	709.86964	97.971531	611.89811	317.27699	18929.084	7259.3462	722.17577
	50	713.00285	76.979509	636.02334	329.78624	19072.927	7259.3462	731.54795
	60	707.30852	78.105583	629.20294	326.24977	19083.882	7259.3462	733.1438
	70	697.60982	71.380806	626.22902	324.70775	18613.586	7259.3462	731.79169
	80	682.66834	42.398975	640.26937	331.98786	18154.936	7259.3462	726.45635
	90	673.44723	52.969072	620.47816	321.72586	18045.053	7259.3462	728.06622
	100	669.92918	49.225254	620.70393	321.84292	18355.602	7259.3462	736.25144
	110	652.17078	66.807308	585.36347	303.51845	19062.947	7259.3462	730.48273
	120	639.93976	69.919249	570.02051	295.56292	19223.457	7259.3462	730.01846
	130	629.43878	51.819022	577.61976	299.50323	18845.451	7259.3462	731.15365
	140	615.51376	56.674462	558.8393	289.76532	18984.228	7259.3462	728.43844
	150	610.1432	46.564286	563.57892	292.22288	19569.229	7259.3462	733.95373
	160	596.60218	52.722792	543.87938	282.00842	19832.101	7259.3462	730.58661
	170	580.74433	49.243709	531.50062	275.58987	19525.031	7259.3462	724.07361
	180	579.70465	27.476218	552.22843	286.33751	18996.164	7259.3462	731.95874
	190	569.94349	8.0576613	561.88583	291.34499	18443.717	7259.3462	730.53935
	200	565.01057	9.4836092	555.52696	288.04783	18414.326	7259.3462	733.53809
	210	547.5494	-5.9186368	553.46804	286.98026	18482.34	7259.3462	723.49907
	220	539.94944	-21.338421	561.28786	291.03493	18651.296	7259.3462	723.11291
	230	545.47344	-6.1086018	551.58204	286.00234	18674.951	7259.3462	735.5025
	240	535.22996	-28.673307	563.90327	292.39105	18668.483	7259.3462	731.53812
	250	526.70557	-12.718875	539.42445	279.69848	18492.475	7259.3462	728.92867
	260	520.77813	-13.068148	533.84628	276.80612	18781.129	7259.3462	728.04227
	270	519.03618	-11.741784	530.77797	275.21516	18350.851	7259.3462	730.42858
	280	515.2922	-12.105076	527.39728	273.46223	17852.633	7259.3462	729.88762
	290	510.12032	-22.970586	533.09091	276.41445	17776.742	7259.3462	727.03214
	300	511.61373	0.39993442	511.2138	265.07089	17887.683	7259.3462	729.89729
	310	512.09397	-4.060992	516.15496	267.63295	18032.391	7259.3462	730.61622
	320	509.74562	-15.831626	525.57724	272.51852	17785.922	7259.3462	727.44339
	330	516.85481	-10.053605	526.90841	273.20875	17674.27	7259.3462	732.7175
	340	515.98967	-7.7957876	523.78545	271.58946	18028.705	7259.3462	728.97001
	350	512.43215	3.1546823	509.27746	264.06688	18464.177	7259.3462	721.50352
	360	523.32308	-6.4451512	529.76823	274.6916	18774.763	7259.3462	727.36708
	370	534.79754	-2.1973871	536.99493	278.43874	18531.553	7259.3462	732.79117
	380	541.99381	7.7608653	534.23295	277.00661	18542.244	7259.3462	733.09343
	390	539.36783	6.7309092	532.63693	276.17906	18870.288	7259.3462	722.83103
	400	552.47188	21.129659	531.34223	275.50774	19223.71	7259.3462	727.44808
	410	567.52537	29.041361	538.48401	279.21084	19668.684	7259.3462	733.09444
	420	570.75852	37.134164	533.62435	276.69105	19348.741	7259.3462	726.00888
	430	584.92498	30.968551	553.95643	287.23349	18986.721	7259.3462	729.00127
	440	595.38159	9.0214004	586.36019	304.03526	19293.416	7259.3462	727.53621
	450	609.37444	15.804956	593.56948	307.77337	19286.748	7259.3462	729.21994
	460	618.78581	3.8105915	614.97522	318.87252	18846.388	7259.3462	726.25294
	470	631.61955	24.25943	607.36012	314.92399	18347.957	7259.3462	727.15515
	480	646.2198	43.801968	602.41784	312.36135	18433.884	7259.3462	730.68208
	490	655.3319	37.90723	617.42467	320.14259	18827.248	7259.3462	729.38931
	500	666.31159	49.388122	616.92347	319.88271	18569.408	7259.3462	730.73243
	510	673.94242	33.433446	640.50897	332.11209	18446.616	7259.3462	729.36383
	520	676.25767	43.063101	633.19457	328.31948	18180.131	7259.3462	723.63463
	530	682.10432	49.106021	632.9983	328.21771	18742.681	7259.3462	722.7749
	540	693.89305	28.474371	665.41868	345.02809	19230.633	7259.3462	729.07019
	550	705.87833	69.725311	636.15302	329.85348	19426.953	7259.3462	737.26108
	560	695.86985	53.734546	642.1353	332.95537	20282.821	7259.3462	724.98119
	570	701.80652	56.280438	645.52608	334.71353	19699.902	7259.3462	730.13265
	580	711.70794	49.800489	661.90745	343.20748	19852.966	7259.3462	740.79945
	590	697.0211	49.951285	647.06981	335.51397	20397.626	7259.3462	728.45808
	600	688.26156	50.2342	638.02736	330.82534	20023.121	7259.3462	723.4564
	610	684.82044	14.020445	670.79999	347.81837	19389.214	7259.3462	725.36369
	620	684.05263	33.523331	650.5293	337.30776	18719.93	7259.3462	732.04923
	630	674.64705	8.9087635	665.73829	345.19382	19126.641	7259.3462	732.00987
	640	666.6717	0.68778416	665.98391	345.32118	19507.006	7259.3462	735.4423
	650	652.8799	21.432592	631.44731	327.4135	19355.874	7259.3462	734.22962
	660	637.32439	22.858462	614.46592	318.60844	19687.719	7259.3462	731.87897
	670	621.96567	50.39599	571.56968	296.36619	20149.108	7259.3462	729.70607
	680	606.03467	26.11756	579.91711	300.69444	20294.702	7259.3462	726.50307
	690	598.16808	25.572461	572.59562	296.89815	20246.993	7259.3462	731.72307
	700	583.76533	52.855985	530.90934	275.28328	20039.268	7259.3462	729.52302
	710	580.40223	19.425789	560.97645	290.87346	19713.072	7259.3462	737.62284
	720	557.90572	6.7696691	551.13605	285.77109	19343.596	7259.3462	726.18208
	730	549.17543	-16.153474	565.3289	293.13027	19434.737	7259.3462	727.96252
	740	540.49655	-19.138448	559.63499	290.1779	19399.762	7259.3462	729.51486
	750	528.99699	-4.8281754	533.82516	276.79517	18689.907	7259.3462	727.66537
	760	523.21545	-35.47422	558.68967	289.68774	18334.531	7259.3462	731.08769
	770	511.46002	-34.324638	545.78465	282.99632	17989.984	7259.3462	728.01859
	780	511.13307	-38.992615	550.12568	285.2472	17883.695	7259.3462	735.60042
	790	494.97854	-42.223463	537.202	278.54611	17830.941	7259.3462	726.56823
	800	487.318	-39.59379	526.91179	273.2105	17732.386	7259.3462	725.22191
	810	487.30729	-42.97962	530.28691	274.96055	17696.584	7259.3462	730.72418
	820	480.64267	-47.690717	528.33339	273.94762	17701.817	7259.3462	728.6202
	830	482.53261	-60.382788	542.9154	281.50858	18228.849	7259.3462	734.24078
	840	473.99522	-52.131466	526.12669	272.80342	18221.574	7259.3462	728.64932
	850	468.91048	-56.698093	525.60857	272.53477	18442.823	7259.3462	725.49855
	860	471.41281	-50.801907	522.21472	270.77501	18485.625	7259.3462	728.97059
	870	470.99805	-33.781786	504.77983	261.7348	18890.022	7259.3462	728.43206
	880	473.35786	-45.078911	518.43677	268.8161	18874.358	7259.3462	729.4447
	890	475.12752	-62.696047	537.82357	278.8684	19172.594	7259.3462	728.82132
	900	478.14468	-62.086198	540.23088	280.11662	19196.101	7259.3462	728.60747
	910	487.29844	-49.126862	536.4253	278.14338	18878.357	7259.3462	733.73732
	920	479.79697	-49.329336	529.1263	274.35875	18915.317	7259.3462	721.3458
	930	493.24908	-42.82587	536.07495	277.96172	19100.772	7259.3462	728.9806
	940	498.28933	-43.4132	541.70253	280.87969	19135.907	7259.3462	727.54148
	950	512.51577	-37.277891	549.79366	285.07504	18675.478	7259.3462	734.54473
	960	517.17975	-39.65438	556.83413	288.72562	18139.732	7259.3462	731.46333
	970	518.75178	-43.24702	561.9988	291.40357	18342.033	7259.3462	724.76668
	980	534.25688	-24.66369	558.92057	289.80747	18747.363	7259.3462	731.56652
	990	534.73797	-12.884881	547.62285	283.94945	18646.237	7259.3462	723.09588
	1000	549.9682	-9.5920323	559.56023	290.13914	18337.486	7259.3462	728.67815
	1010	556.68737	-13.587311	570.27468	295.69471	18622.424	7259.3462	725.26417
	1020	574.7163	-10.738446	585.45474	303.56577	18980.267	7259.3462	732.84922
	1030	588.44219	11.052177	577.39001	299.3841	19121.837	7259.3462	736.34455
	1040	584.15424	-3.2837852	587.43802	304.59413	19146.591	7259.3462	721.91216
	1050	604.01765	-0.42219959	604.43985	313.40979	18756.984	7259.3462	731.1878
	1060	604.59917	11.991546	592.60763	307.27463	18396.994	7259.3462	721.74292
	1070	620.73837	-7.0050873	627.74345	325.49301	18508.713	7259.3462	728.01323
	1080	636.54822	20.903387	615.64483	319.21972	18847.382	7259.3462	734.88822
	1090	639.94034	20.121137	619.81921	321.38418	19184.264	7259.3462	730.34541
	1100	649.41779	34.742005	614.67579	318.71726	19622.911	7259.3462	732.63823
	1110	645.53263	19.936285	625.59634	324.3797	20084.607	7259.3462	722.37544
	1120	657.88431	15.079508	642.8048	333.30251	20601.839	7259.3462	729.12951
	1130	659.92118	40.48883	619.43235	321.18359	20512.554	7259.3462	726.85573
	1140	664.39644	19.956874	644.43956	334.15016	20607.765	7259.3462	728.07136
	1150	672.43369	39.004526	633.42916	328.44112	20415.216	7259.3462	734.35756
	1160	665.37219	48.812796	616.5594	319.69393	20305.544	7259.3462	726.77432
	1170	672.22682	39.142666	633.08416	328.26223	19827.862	7259.3462	733.9528
	1180	663.82822	43.069335	620.75888	321.87142	19417.428	7259.3462	726.89511
	1190	663.87757	22.311743	641.56583	332.66009	19053.635	7259.3462	729.39346
	1200	662.28083	37.15988	625.12095	324.13321	18843.521	7259.3462	731.58034
	1210	654.38124	38.961395	615.41985	319.10306	19210.538	7259.3462	728.34346
	1220	653.84044	35.973089	617.86735	320.37212	19258.284	7259.3462	733.27573
	1230	638.90097	22.161515	616.73945	319.78729	18635.655	7259.3462	724.58046
	1240	635.96653	7.7583861	628.20814	325.73395	18190.115	7259.3462	729.05906
	1250	630.7234	16.048991	614.67441	318.71654	18069.138	7259.3462	732.12457
	1260	624.44593	19.993499	604.45244	313.41632	18557.511	7259.3462	734.59624
	1270	618.62517	34.809435	583.81574	302.71593	19066.179	7259.3462	737.95723
	1280	595.77508	38.055493	557.71959	289.18474	19459.639	7259.3462	723.73642
	1290	587.9858	24.472742	563.51306	292.18873	19060.854	7259.3462	724.17757
	1300	592.3398	35.541552	556.79825	288.70701	18316.742	7259.3462	736.53239
	1310	573.86532	19.863395	554.00193	287.25708	18006.986	7259.3462	725.40061
	1320	573.31122	10.860132	562.45109	291.63808	17957.757	7259.3462	732.04122
	1330	560.08171	-10.106716	570.18843	295.64999	17712.757	7259.3462	725.6758
	1340	559.58971	-15.379582	574.9693	298.12893	17540.303	7259.3462	732.01589
	1350	557.9441	12.002594	545.9415	283.07765	17473.026	7259.3462	736.9463
	1360	543.33164	-2.4711694	545.80281	283.00574	18004.783	7259.3462	728.00036
	1370	542.84224	8.1709829	534.67126	277.23388	17950.413	7259.3462	732.49163
	1380	525.97615	-16.567572	542.54372	281.31586	17525.784	7259.3462	719.72948
	1390	530.63066	-18.68695	549.31761	284.82821	17300.041	7259.3462	727.90426
	1400	529.70372	-3.6987584	533.40247	276.576	17132.402	7259.3462	729.94726
	1410	528.39826	-6.8987866	535.29704	277.55836	17335.491	7259.3462	730.92258
	1420	531.64574	-16.813702	548.45944	284.38324	17761.457	7259.3462	735.85927
	1430	522.1804	-40.507008	562.68741	291.76062	18226.253	7259.3462	727.42293
	1440	529.9197	-31.799304	561.719	291.25849	17888.866	7259.3462	735.6624
	1450	512.16905	-14.283989	526.45304	272.97263	18038.607	7259.3462	717.84393
	1460	521.88981	-32.505194	554.395	287.4609	18066.394	7259.3462	726.75153
	1470	532.02311	-14.854926	546.87804	283.56326	18273.771	7259.3462	735.64422
	1480	530.8619	-0.83055004	531.69245	275.68933	18353.921	7259.3462	732.65717
	1490	534.69837	-16.562638	551.26101	285.83588	18147.289	7259.3462	733.9013
	1500	526.72786	-19.566581	546.29444	283.26065	17946.873	7259.3462	722.64317
	1510	540.4134	-13.534982	553.94838	287.22932	17816.423	7259.3462	732.28361
	1520	534.00582	-19.949279	553.95509	287.2328	17672.75	7259.3462	721.35534
	1530	545.30399	-18.448669	563.75266	292.31296	17713.711	7259.3462	727.62805
	1540	560.8132	-10.601777	571.41497	296.28597	17804.855	7259.3462	737.89409
	1550	553.15191	-3.0685104	556.22042	288.4074	18104.223	7259.3462	724.93306
	1560	565.02603	-5.2120716	570.2381	295.67575	18458.381	7259.3462	731.06305
	1570	569.85003	-8.5690599	578.41909	299.91769	18872.086	7259.3462	729.92261
	1580	566.54013	-12.612948	579.15308	300.29828	18748.088	7259.3462	720.48404
	1590	583.88116	-6.2423633	590.12353	305.9866	18517.947	7259.3462	731.62183
	1600	591.21235	-1.3948614	592.60721	307.27442	18612.712	7259.3462	733.05953
	1610	591.57344	6.406055	585.16738	303.41677	18723.274	7259.3462	727.74925
	1620	594.82385	-14.044564	608.86842	315.70606	19046.522	7259.3462	725.50327
	1630	597.33365	-19.953313	617.28696	320.07119	18814.142	7259.3462	722.90599
	1640	615.85338	8.3575685	607.49581	314.99435	18621.179	7259.3462	736.97123
	1650	608.41604	1.060275	607.35577	314.92173	18952.889	7259.3462	725.81362
	1660	612.15975	5.0325851	607.12717	314.8032	19124.933	7259.3462	726.53716
	1670	623.24145	-5.3121271	628.55358	325.91307	18847.703	7259.3462	735.32784
	1680	618.10309	4.3797316	613.72336	318.22341	19003.147	7259.3462	728.70561
	1690	620.96458	6.9288337	614.03574	318.38539	19214.135	7259.3462	730.8667
	1700	613.23324	-6.8496418	620.08288	321.52091	19521.07	7259.3462	723.17791
	1710	622.46542	16.054571	606.41085	314.43178	20204.221	7259.3462	733.21026
	1720	616.74956	34.321175	582.42839	301.99657	20115.529	7259.3462	728.80264
	1730	614.22921	4.9104905	609.31872	315.93955	20103.578	7259.3462	727.91943
	1740	620.04156	9.4192488	610.62231	316.61548	19971.168	7259.3462	736.04669
	1750	614.22591	13.294954	600.93096	311.59039	19979.006	7259.3462	733.03869
	1760	602.42019	-2.6455077	605.0657	313.7343	20160.241	7259.3462	724.42076
	1770	601.08062	12.251817	588.8288	305.31527	19977.487	7259.3462	726.64137
	1780	597.56215	11.958768	585.60338	303.64284	19903.001	7259.3462	726.90778
	1790	599.00209	28.6403	570.36179	295.73988	19865.922	7259.3462	732.28079
	1800	589.43505	11.969399	577.46565	299.42332	19865.193	7259.3462	726.59636
	1810	592.67241	-5.5555739	598.22798	310.18886	19361.126	7259.3462	733.94466
	1820	587.84726	11.757465	576.08979	298.70992	19307.283	7259.3462	733.30481
	1830	576.37817	-9.1870012	585.56517	303.62303	19336.78	7259.3462	725.9527
	1840	578.5661	14.643934	563.92216	292.40085	18870.679	7259.3462	732.26643
	1850	566.27984	9.6772105	556.60263	288.60558	19076.802	7259.3462	723.61404
	1860	567.82815	8.9173418	558.91081	289.8024	18599.131	7259.3462	728.51556
	1870	566.5356	9.4695073	557.0661	288.8459	18169.546	7259.3462	730.25917
	1880	564.48671	-5.1285893	569.61529	295.35281	17852.182	7259.3462	730.83318
	1890	563.74879	1.2428244	562.50597	291.66654	17949.924	7259.3462	732.49607
	1900	550.70241	-23.688317	574.39073	297.82894	18700.646	7259.3462	721.60727
	1910	561.63256	-2.2432255	563.87578	292.3768	19121.892	7259.3462	734.58514
	1920	557.67714	0.18429633	557.49284	289.06717	19527.381	7259.3462	732.18409
	1930	549.63159	-9.1217908	558.75339	289.72078	19156.836	7259.3462	725.19279
	1940	551.91052	0.14686271	551.76366	286.09651	19282.318	7259.3462	728.21279
	1950	551.39961	-10.6936	562.09322	291.45252	19647.677	7259.3462	728.01066
	1960	559.10493	14.23295	544.87198	282.52309	19195.728	7259.3462	735.66551
	1970	552.08276	-4.8045871	556.88735	288.75321	19395.599	7259.3462	728.05007
	1980	551.14077	-10.472161	561.61293	291.20349	19241.523	7259.3462	726.06275
	1990	552.60708	-1.9198996	554.52698	287.52933	18968.03	7259.3462	726.12773
	2000	555.794	-21.665707	577.45971	299.42024	19535.302	7259.3462	727.46631
	2010	566.39544	14.658229	551.73721	286.0828	19127.416	7259.3462	736.04198
	2020	554.13455	1.4075221	552.72702	286.59603	18803.199	7259.3462	721.385
	2030	561.92197	-13.923608	575.84558	298.5833	18683.231	7259.3462	726.32745
	2040	572.07415	9.9617304	562.11242	291.46248	18971.704	7259.3462	733.53172
	2050	573.42495	-7.1042969	580.52925	301.01184	19062.602	7259.3462	731.62243
	2060	576.90738	15.780294	561.12708	290.95157	18907.706	7259.3462	731.76142
	2070	574.56928	-13.346367	587.91565	304.84178	19315.79	7259.3462	725.8377
	2080	579.47247	5.4820453	573.99042	297.62137	19281.374	7259.3462	727.05641
	2090	584.97406	16.489965	568.48409	294.76627	19035.24	7259.3462	728.79522
	2100	588.26738	-3.8651199	592.1325	307.02828	18219.921	7259.3462	728.16244
	2110	593.07283	13.996517	579.07631	300.25847	17837.222	7259.3462	729.29036
	2120	600.5754	-20.891102	621.46651	322.23833	18106.366	7259.3462	733.33234
	2130	598.06525	1.1233038	596.94194	309.52203	18319.96	7259.3462	728.00477
	2140	608.81347	21.681894	587.13158	304.43523	18781.999	7259.3462	736.30625
	2150	600.13559	18.539397	581.59619	301.56506	19060.579	7259.3462	725.26565
	2160	598.40681	22.518516	575.88829	298.60545	18849.244	7259.3462	721.25575
	2170	616.06655	-1.6258755	617.69243	320.28142	19250.198	7259.3462	736.74328
	2180	608.50646	37.324809	571.18165	296.16499	19471.078	7259.3462	727.44546
	2190	609.5394	35.840217	573.69918	297.47036	19737.658	7259.3462	726.77286
	2200	613.3044	41.43753	571.86687	296.52029	19423.742	7259.3462	728.86301
	2210	617.27502	44.623959	572.65106	296.9269	18741.641	7259.3462	731.07845
	2220	621.85621	35.011292	586.84492	304.28659	18573.7	7259.3462	733.75293
	2230	617.24757	40.936544	576.31103	298.82464	18681.154	7259.3462	727.31985
	2240	615.42445	30.398112	585.02634	303.34364	18822.246	7259.3462	723.6005
	2250	624.42206	33.282538	591.13952	306.5134	18734.136	7259.3462	730.83374
	2260	621.15542	35.562676	585.59275	303.63733	18753.809	7259.3462	726.15816
	2270	631.82988	46.073755	585.75613	303.72204	19287.531	7259.3462	735.61477
	2280	628.59222	37.416054	591.17617	306.5324	20020.692	7259.3462	731.28423
	2290	622.90019	29.677216	593.22297	307.5937	19951.863	7259.3462	724.66864
	2300	630.65936	36.187067	594.4723	308.24149	19417.422	7259.3462	731.81526
	2310	622.04224	21.946058	600.09618	311.15755	18957.786	7259.3462	722.83448
	2320	632.07337	29.331747	602.74162	312.52924	18658.09	7259.3462	732.99359
	2330	627.35173	26.733518	600.61821	311.42822	18599.788	7259.3462	729.01352
	2340	627.75187	19.045392	608.70648	315.6221	18604.812	7259.3462	730.61751
	2350	628.03312	16.032272	612.00084	317.33026	18855.306	7259.3462	732.755
	2360	616.83697	15.003537	601.83343	312.05833	19037.878	7259.3462	724.02981
	2370	623.74297	23.682063	600.0609	311.13925	19183.693	7259.3462	733.95183
	2380	615.46939	21.362159	594.10723	308.0522	19019.314	7259.3462	729.0094
	2390	611.35776	7.1677607	604.19	313.28024	18871.39	7259.3462	728.68514
	2400	606.84095	7.2407917	599.60015	310.90035	18813.807	7259.3462	728.50332
	2410	604.3778	1.6451052	602.7327	312.52461	19037.383	7259.3462	730.75741
	2420	601.93939	14.312384	587.627	304.69212	19162.521	7259.3462	733.47038
	2430	594.34047	14.266192	580.07427	300.77593	19187.039	7259.3462	731.13238
	2440	589.7737	2.4928435	587.28086	304.51264	19089.178	7259.3462	731.87452
	2450	584.39639	-3.0099641	587.40635	304.5777	18734.78	7259.3462	731.90746
	2460	576.38584	-13.417513	589.80335	305.82058	18625.528	7259.3462	729.41564
	2470	566.99967	0.97921965	566.02045	293.48884	18557.029	7259.3462	725.47178
	2480	566.02151	4.4256984	561.59582	291.19461	18199.781	7259.3462	729.70767
	2490	560.16242	0.19156626	559.97085	290.35205	17579.772	7259.3462	728.85806
	2500	556.24423	-11.440936	567.68517	294.35202	17447.943	7259.3462	729.65014
	2510	559.71118	-20.661291	580.37247	300.93055	17812.806	7259.3462	737.73841
	2520	543.26357	0.69356223	542.57001	281.32949	18274.68	7259.3462	725.47601
	2530	541.63653	-15.811501	557.44803	289.04393	18787.184	7259.3462	727.50678
	2540	540.22682	-7.0458371	547.27266	283.76787	18703.207	7259.3462	729.34861
	2550	540.53441	-5.2447207	545.77913	282.99346	18574.169	7259.3462	732.21894
	2560	536.64124	-12.495041	549.13629	284.73419	18781.725	7259.3462	730.3257
	2570	526.11155	-10.394313	536.50587	278.18515	18549.186	7259.3462	721.17768
	2580	536.63037	-20.262297	556.89267	288.75597	18266.97	7259.3462	732.44926
	2590	537.98217	-7.1553228	545.13749	282.66076	17647.628	7259.3462	734.07345
	2600	531.77283	-23.212475	554.9853	287.76698	17646.351	7259.3462	727.53102
	2610	533.44299	-16.961285	550.40427	285.39165	17797.254	7259.3462	728.36571
	2620	530.54407	-11.769419	542.31349	281.19648	18436.877	7259.3462	724.0261
	2630	541.62244	-12.94759	554.57003	287.55165	18347.781	7259.3462	732.99011
	2640	541.71997	0.8964488	540.82352	280.42391	18079.518	7259.3462	730.54353
	2650	540.91405	-15.899961	556.81401	288.71519	18053.266	7259.3462	726.56402
	2660	550.34848	-18.855974	569.20446	295.13979	18047.087	7259.3462	732.23217
	2670	547.41562	-6.5761905	553.99181	287.25184	18216.498	7259.3462	725.22182
	2680	559.57769	0.42456475	559.15312	289.92804	18369.886	7259.3462	732.92543
	2690	559.08357	-1.1693229	560.25289	290.49829	18303.36	7259.3462	727.68235
	2700	569.66817	2.2541799	567.41399	294.21141	18596.005	7259.3462	733.12013
	2710	571.21104	12.700979	558.51006	289.59461	18904.165	7259.3462	729.28044
	2720	567.68677	2.6800891	565.00668	292.96319	19418.901	7259.3462	719.86259
	2730	587.53408	9.3223172	578.21176	299.81019	19060.763	7259.3462	733.37908
	2740	583.50763	3.9789009	579.52873	300.49306	18617.709	7259.3462	723.14659
	2750	600.09869	-2.8559162	602.95461	312.63967	18565.35	7259.3462	733.49805
	2760	600.35286	7.2444748	593.10839	307.53428	18810.989	7259.3462	727.90739
	2770	604.52925	20.34902	584.18023	302.90492	19160.935	7259.3462	726.45057
	2780	614.79871	33.663042	581.13567	301.32628	18997.328	7259.3462	731.26632
	2790	607.91531	6.7244733	601.19084	311.72514	19142.7	7259.3462	719.0855
	2800	628.46171	11.515929	616.94578	319.89428	19784.305	7259.3462	734.62875
	2810	633.48413	32.623991	600.86014	311.55367	20604.574	7259.3462	735.49294
	2820	628.21711	22.909365	605.30774	313.85981	20243.464	7259.3462	726.57396
	2830	635.06923	8.5534192	626.51581	324.85646	19645.84	7259.3462	730.23719
	2840	633.46769	1.9881405	631.47955	327.43022	19638.402	7259.3462	726.33459
	2850	637.41051	38.240475	599.17003	310.67732	19251.582	7259.3462	728.95419
	2860	645.88383	42.454309	603.42952	312.88592	19300.509	7259.3462	736.76059
	2870	632.98629	6.3107422	626.67555	324.93929	18922.978	7259.3462	723.76948
	2880	640.25878	26.189015	614.06977	318.40303	18656.208	7259.3462	731.90466
	2890	637.54196	1.7145315	635.82743	329.68465	18855.247	7259.3462	730.93447
	2900	633.52152	31.230178	602.29135	312.29577	19334.398	7259.3462	729.67996
	2910	633.62475	34.685476	598.93927	310.55767	20084.796	7259.3462	733.13523
	2920	625.42015	18.907911	606.51224	314.48435	19935.786	7259.3462	728.70671
	2930	624.99958	40.09122	584.90836	303.28247	19537.173	7259.3462	732.45999
	2940	613.46546	7.3295924	606.13587	314.2892	19193.581	7259.3462	725.3367
	2950	614.0094	21.608614	592.40079	307.16738	19376.302	7259.3462	730.85783
	2960	605.37111	25.182726	580.18839	300.8351	19092.12	7259.3462	727.29983
	2970	603.79023	7.363418	596.42682	309.25493	19088.399	7259.3462	731.01563
	2980	593.31489	15.928626	577.38627	299.38216	18310.034	7259.3462	726.0457
	2990	594.06522	-5.2713814	599.3366	310.76369	17984.528	7259.3462	732.59446
	3000	592.44199	7.3956856	585.04631	303.35399	18010.917	7259.3462	737.04521
	3010	574.87138	0.37686897	574.49451	297.88275	18140.25	7259.3462	725.34667
	3020	579.59655	1.6671698	577.92938	299.66378	18303.078	7259.3462	735.98687
	3030	560.42132	-8.0468808	568.4682	294.75803	17942.249	7259.3462	722.36255
	3040	558.06063	-17.226024	575.28666	298.29349	18162.176	7259.3462	725.53531
	3050	557.61841	-12.129827	569.74824	295.42175	18123.291	7259.3462	730.61488
	3060	549.62755	-19.514632	569.14218	295.1075	18440.703	7259.3462	727.91852
	3070	552.11202	-12.921849	565.03387	292.97729	18728.118	7259.3462	735.72919
	3080	540.33381	-28.78415	569.11796	295.09494	18999.483	7259.3462	728.86144
	3090	536.97336	-26.557166	563.53052	292.19778	19484.593	7259.3462	730.12418
	3100	534.67643	8.4123647	526.26406	272.87465	19487.195	7259.3462	731.84207
	3110	527.01711	-20.262528	547.27964	283.77149	19248.811	7259.3462	727.29784
	3120	527.46963	-5.9048223	533.37445	276.56147	19193.321	7259.3462	730.30926
	3130	522.83831	-21.645154	544.48346	282.32164	18708.111	7259.3462	727.3415
	3140	522.64603	-35.783434	558.42946	289.55282	18464.446	7259.3462	728.18587
	3150	524.67368	-6.6821677	531.35584	275.5148	18014.532	7259.3462	730.8109
	3160	523.42656	-47.959638	571.3862	296.27105	18200.671	7259.3462	729.54098
	3170	524.39702	-27.913291	552.31031	286.37996	18166.178	7259.3462	730.15906
	3180	521.09051	-38.015449	559.10596	289.90359	18509.912	7259.3462	725.93332
	3190	527.08326	-29.152314	556.23557	288.41526	18476.841	7259.3462	730.53765
	3200	518.43648	-37.305	555.74148	288.15906	18591.723	7259.3462	720.11592
	3210	534.56149	-48.04212	582.60361	302.08742	18631.901	7259.3462	734.16516
	3220	528.81384	-48.675468	577.48931	299.43559	18622.866	7259.3462	726.3952
	3230	533.85375	-61.106482	594.96023	308.49449	18571.752	7259.3462	729.39411
	3240	541.30841	-52.974651	594.28306	308.14337	18923.533	7259.3462	735.08701
	3250	529.22366	-47.67817	576.90183	299.13098	19012.724	7259.3462	721.43937
	3260	542.63038	-50.850394	593.48077	307.72737	18672.99	7259.3462	733.37319
	3270	536.33342	-33.62868	569.9621	295.53264	18229.641	7259.3462	725.83471
	3280	549.77359	-36.208457	585.98205	303.83918	18709.879	7259.3462	738.003
	3290	539.7844	-30.601537	570.38594	295.7524	18943.008	7259.3462	726.82915
	3300	541.55746	-43.377056	584.93452	303.29603	18725.785	7259.3462	727.33287
	3310	546.79625	-44.942935	591.73919	306.82434	18761.086	7259.3462	731.36193
	3320	546.4355	-31.206293	577.64179	299.51466	18997.763	7259.3462	729.93906
	3330	546.57787	-38.195686	584.77356	303.21257	19535.954	7259.3462	729.13219
	3340	544.37723	-33.443462	577.82069	299.60742	19772.655	7259.3462	726.07209
	3350	549.91354	-32.051012	581.96455	301.75606	20204.578	7259.3462	730.6962
	3360	542.44241	-22.397683	564.84009	292.87681	20103.294	7259.3462	722.26668
	3370	549.30748	-32.851898	582.15938	301.85708	19864.067	7259.3462	728.06413
	3380	555.58511	-26.606315	582.19143	301.8737	20232.912	7259.3462	733.39315
	3390	551.07538	-32.975437	584.05082	302.83782	20739.37	7259.3462	728.02294
	3400	554.22733	-46.775394	601.00273	311.6276	20414.949	7259.3462	730.45339
	3410	553.7761	-34.533635	588.30973	305.04612	19886.9	7259.3462	729.60937
	3420	554.03215	-41.231474	595.26362	308.6518	18894.103	7259.3462	729.68426
	3430	551.63747	-45.39959	597.03706	309.57135	18574.278	7259.3462	727.46138
	3440	552.4679	-35.569384	588.03728	304.90485	18334.966	7259.3462	728.82282
	3450	556.54263	-35.965163	592.50779	307.22287	18347.004	7259.3462	733.69344
	3460	549.48718	-36.491684	585.97886	303.83753	18037.222	7259.3462	727.77743
	3470	549.31738	-43.174974	592.49235	307.21486	18662.375	7259.3462	728.99303
	3480	552.82297	-36.058954	588.88193	305.34281	18881.54	7259.3462	733.99978
	3490	546.19171	-31.711885	577.90359	299.6504	18838.06	7259.3462	728.86027
	3500	538.77269	-39.883563	578.65625	300.04067	18643.29	7259.3462	723.01924
	3510	537.77105	-40.784839	578.55589	299.98863	18454.117	7259.3462	723.68291
	3520	546.3065	-36.149494	582.45599	302.01088	18069.669	7259.3462	733.89871
	3530	542.93515	-20.414511	563.34966	292.104	18393.283	7259.3462	732.24668
	3540	532.4632	-45.779066	578.24227	299.82601	18903.932	7259.3462	723.32399
	3550	540.85878	-40.401256	581.26003	301.39076	18430.257	7259.3462	733.33505
	3560	535.74585	-46.158653	581.9045	301.72493	18199.808	7259.3462	729.79001
	3570	531.98296	-47.300539	579.2835	300.3659	18640.434	7259.3462	727.61943
	3580	532.43824	-27.759889	560.19813	290.4699	18707.726	7259.3462	729.64498
	3590	528.62093	-46.582301	575.20323	298.25023	19013.684	7259.3462	727.06986
	3600	532.81365	-16.612075	549.42572	284.88426	18763.104	7259.3462	732.3572
	3610	528.76005	-37.189254	565.94931	293.45195	18981.936	7259.3462	729.01592
	3620	529.27633	-46.376168	575.6525	298.48318	19200.04	7259.3462	729.98572
	3630	531.77742	-16.40061	548.17803	284.23732	19309.36	7259.3462	732.7212
	3640	524.03337	-56.25911	580.29248	300.88907	19692.97	7259.3462	724.7064
	3650	519.93953	-30.169011	550.10854	285.23831	19578.249	7259.3462	720.1098
	3660	533.53192	-45.966742	579.49867	300.47747	19202.967	7259.3462	732.89634
	3670	527.14083	-53.34401	580.48484	300.98881	19370.784	7259.3462	725.71557
	3680	533.97336	-32.249008	566.22237	293.59354	19525.404	7259.3462	731.84435
	3690	532.59947	-77.853429	610.4529	316.52763	19757.792	7259.3462	729.70834
	3700	532.92459	-38.53896	571.46355	296.31116	19759.124	7259.3462	729.54265
	3710	536.98495	-40.532609	577.51756	299.45024	19875.076	7259.3462	733.14374
	3720	531.26058	-44.88784	576.14842	298.74032	20012.649	7259.3462	726.89658
	3730	533.67765	-32.817088	566.49474	293.73477	19885.047	7259.3462	728.5754
	3740	534.97835	-43.155589	578.13394	299.76984	19637.733	7259.3462	728.9227
	3750	528.27199	-27.513544	555.78553	288.18191	19508.698	7259.3462	721.28617
	3760	537.689	-33.240425	570.92943	296.03421	19524.403	7259.3462	729.61124
	3770	546.25037	-39.709177	585.95955	303.82752	19530.581	7259.3462	737.02905
	3780	538.40096	-57.436618	595.83757	308.9494	19216.274	7259.3462	728.07534
	3790	543.53031	-44.166085	587.6964	304.7281	18895.588	7259.3462	732.32813
	3800	539.36431	-60.824067	600.18838	311.20535	19153.914	7259.3462	727.46597
	3810	536.43865	-49.736723	586.17537	303.93943	19080.936	7259.3462	724.05633
	3820	545.26936	-31.991027	577.26039	299.31689	19163.048	7259.3462	732.57046
	3830	537.98977	-40.385179	578.37495	299.89481	19119.974	7259.3462	724.90536
	3840	551.48516	-1.8736856	553.35884	286.92364	19131.522	7259.3462	738.01068
	3850	539.02033	-34.614557	573.63488	297.43702	19197.969	7259.3462	724.86699
	3860	543.10236	-43.002887	586.10525	303.90307	18784.485	7259.3462	728.08557
	3870	548.843	-37.597717	586.44071	304.07701	18517.674	7259.3462	732.9677
	3880	547.76821	-34.044851	581.81306	301.67751	18095.074	7259.3462	731.08504
	3890	540.17711	-30.612705	570.78981	295.96182	17896.256	7259.3462	722.80615
	3900	543.9295	-45.375587	589.30509	305.56223	17969.245	7259.3462	725.81449
	3910	554.32016	-20.739158	575.05931	298.17561	17857.222	7259.3462	735.55016
	3920	542.35939	-7.7579387	550.11733	285.24287	17703.774	7259.3462	722.84876
	3930	549.34221	-40.408989	589.7512	305.79354	17735.116	7259.3462	728.88894
	3940	555.27063	-34.068208	589.33884	305.57972	17853.342	7259.3462	734.07651
	3950	551.99736	-35.819524	587.81688	304.79057	18255.813	7259.3462	730.15794
	3960	548.65465	-40.466977	589.12163	305.4671	18716.238	7259.3462	726.26064
	3970	549.2276	-29.457519	578.68512	300.05563	19405.85	7259.3462	726.45973
	3980	552.40486	-8.1736258	560.57849	290.66712	20008.548	7259.3462	729.28758
	3990	554.25766	-14.31035	568.56801	294.80979	20412.418	7259.3462	730.57336
	4000	552.76797	-28.941196	581.70917	301.62364	20139.308	7259.3462	728.31619
	4010	562.38493	-12.097106	574.48204	297.87628	19857.019	7259.3462	737.16945
	4020	549.215	-38.813108	588.02811	304.9001	20067.155	7259.3462	723.16509
	4030	551.43805	-24.888668	576.32672	298.83277	19923.621	7259.3462	724.60496
	4040	557.93411	-26.714405	584.64852	303.14773	19816.398	7259.3462	730.41855
	4050	554.95248	-34.902157	589.85464	305.84718	19312.886	7259.3462	726.8573
	4060	563.12071	-17.138484	580.25919	300.87181	19128.699	7259.3462	734.77328
	4070	552.78879	-46.212354	599.00114	310.58975	19426.687	7259.3462	724.35483
	4080	562.43358	-17.929088	580.36267	300.92547	19790.207	7259.3462	734.11409
	4090	555.91571	-16.632623	572.54833	296.87363	20043.483	7259.3462	727.68152
	4100	555.21629	-28.394671	583.61096	302.60974	19899.26	7259.3462	727.07902
	4110	553.94449	-3.6610327	557.60552	289.12559	19692.466	7259.3462	725.9869
	4120	561.01373	-21.837919	582.85165	302.21603	19899.922	7259.3462	732.96889
	4130	561.73501	-8.8980404	570.63305	295.88053	20204.764	7259.3462	733.57027
	4140	553.9922	-20.900633	574.89283	298.08928	20127.44	7259.3462	725.54
	4150	557.69507	-40.715246	598.41032	310.2834	19687.609	7259.3462	728.92325
	4160	552.18163	-31.10589	583.28752	302.44204	19264.074	7259.3462	723.23035
	4170	561.99	-22.645514	584.63551	303.14099	19276.455	7259.3462	732.91926
	4180	557.70882	-16.102475	573.81129	297.52849	18882.628	7259.3462	728.69361
	4190	561.0374	-44.451415	605.48881	313.95369	18831.328	7259.3462	732.2984
	4200	559.71395	-30.331586	590.04554	305.94616	18970.526	7259.3462	731.67488
	4210	557.58357	-23.393758	580.97732	301.24417	19321.115	7259.3462	730.30101
	4220	555.59457	-40.585981	596.18055	309.12724	19879.06	7259.3462	729.11056
	4230	554.18413	-25.541959	579.72609	300.59539	20009.287	7259.3462	728.77526
	4240	552.92863	-46.187326	599.11595	310.64928	20023.871	7259.3462	728.75619
	4250	547.73298	-48.517776	596.25076	309.16364	19538.386	7259.3462	725.09295
	4260	555.15245	-42.318565	597.47101	309.79636	19739.183	7259.3462	734.48618
	4270	546.23513	-50.016758	596.25189	309.16423	20100.884	7259.3462	727.96485
	4280	543.74581	-48.483679	592.22949	307.07856	20197.238	7259.3462	728.23212
	4290	543.67396	-60.001826	603.67579	313.01362	19976.627	7259.3462	731.21022
	4300	535.3619	-52.046737	587.40864	304.57889	19666.365	7259.3462	726.27521
	4310	531.55256	-60.946437	592.499	307.21831	19481.99	7259.3462	726.15775
	4320	534.8606	-69.061454	603.92205	313.14131	19154.262	7259.3462	733.53765
	4330	528.41412	-46.603761	575.01788	298.15413	18554.043	7259.3462	731.36753
	4340	524.32815	-47.658684	571.98684	296.58249	18816.007	7259.3462	731.44714
	4350	509.29635	-43.656076	552.95242	286.7129	19131.381	7259.3462	720.35901
	4360	519.78566	-33.838449	553.62411	287.06118	19080.57	7259.3462	734.35597
	4370	516.22446	-32.924163	549.14862	284.74058	19411.411	7259.3462	733.72209
	4380	504.39383	-16.434503	520.82834	270.05615	19474.647	7259.3462	724.13073
	4390	512.83163	-57.212897	570.04453	295.57538	19574.367	7259.3462	734.09217
	4400	501.08709	-53.332884	554.41998	287.47385	19862.536	7259.3462	723.36963
	4410	509.14901	-50.947535	560.09654	290.41722	19555.839	7259.3462	731.9384
	4420	497.50763	-62.046365	559.55399	290.1359	19086.551	7259.3462	720.43828
	4430	502.23918	-40.592979	542.83216	281.46542	18344.816	7259.3462	724.973
	4440	518.98428	-50.499204	569.48349	295.28447	18097.558	7259.3462	741.20056
	4450	505.63564	-41.214375	546.85001	283.54872	18011.84	7259.3462	727.04361
	4460	516.9734	-58.295106	575.2685	298.28408	17932.527	7259.3462	737.03703
	4470	502.04526	-50.68199	552.72725	286.59615	18417.646	7259.3462	720.3894
	4480	511.38379	-18.458919	529.84271	274.73022	18569.742	7259.3462	727.48567
	4490	509.89857	-37.50249	547.40106	283.83445	19331.208	7259.3462	722.99469
	4500	519.30986	-4.3366105	523.64647	271.51739	19909.359	7259.3462	728.7511
	4510	527.88225	-23.615836	551.49808	285.95881	19817.634	7259.3462	732.83665
	4520	522.7805	-37.473453	560.25396	290.49884	19614.218	7259.3462	722.74039
	4530	544.49653	-43.512736	588.00927	304.89033	19467.28	7259.3462	739.12035
	4540	538.19039	-65.645905	603.8363	313.09684	19446.854	7259.3462	727.35677
	4550	538.0215	-51.324424	589.34592	305.5834	19611.518	7259.3462	721.95102
	4560	545.1502	-30.796114	575.94632	298.63553	19392.935	7259.3462	724.03811
	4570	553.40032	-27.622934	581.02325	301.26799	19087.568	7259.3462	727.44043
	4580	564.89606	-26.112564	591.00863	306.44553	18739.461	7259.3462	734.23182
	4590	569.87758	-26.646558	596.52414	309.3054	18695.009	7259.3462	734.72016
	4600	564.04905	-30.019208	594.06826	308.03199	19194.101	7259.3462	724.66185
	4610	569.13766	0.76011352	568.37755	294.71103	19207.834	7259.3462	725.71213
	4620	573.98001	-17.56151	591.54152	306.72184	19209.728	7259.3462	726.4365
	4630	583.24821	-11.776566	595.02478	308.52796	18833.249	7259.3462	731.63936
	4640	586.57546	3.0447848	583.53068	302.56812	18551.916	7259.3462	731.35351
	4650	580.28685	-33.749716	614.03656	318.38581	18753.595	7259.3462	721.81541
	4660	596.66781	-22.847001	619.51481	321.22635	18391.996	7259.3462	735.46472
	4670	594.77756	-24.518127	619.29568	321.11273	18196.313	7259.3462	731.50051
	4680	589.92003	-12.237019	602.15705	312.22613	18205.267	7259.3462	725.32965
	4690	589.69915	-8.2791092	597.97826	310.05938	18418.909	7259.3462	724.54221
	4700	595.92615	-26.420756	622.34691	322.69483	18964.177	7259.3462	730.77078
	4710	602.6234	-28.430565	631.05397	327.20955	18866.402	7259.3462	738.30154
	4720	592.31435	-6.1097504	598.42411	310.29055	18715.869	7259.3462	729.71201
	4730	583.35008	-6.1129313	589.46301	305.64411	19119.436	7259.3462	722.83723
	4740	584.28801	8.2158619	576.07215	298.70078	19347.211	7259.3462	726.00929
	4750	592.14013	13.43799	578.70214	300.06446	19526.82	7259.3462	736.12338
	4760	579.69659	13.983649	565.71294	293.3294	19500.127	7259.3462	725.93913
	4770	584.16829	1.1093611	583.05892	302.32351	19475.148	7259.3462	732.56378
	4780	578.98456	-15.975063	594.95963	308.49418	19494.894	7259.3462	729.62377
	4790	570.29106	-13.578584	583.86965	302.74388	19565.275	7259.3462	723.32113
	4800	573.19476	-32.804671	605.99943	314.21846	19815.232	7259.3462	728.83154
	4810	566.09711	-31.74357	597.84068	309.98804	19708.378	7259.3462	724.84713
	4820	570.42998	-22.518672	592.94865	307.45146	20007.886	7259.3462	732.86866
	4830	559.48948	-39.378533	598.86801	310.52072	20419.783	7259.3462	726.04021
	4840	569.61624	-25.843261	595.4595	308.75337	20583.414	7259.3462	740.73616
	4850	558.43193	-27.459804	585.89174	303.79236	21025.083	7259.3462	734.15487
	4860	540.5449	-18.205406	558.75031	289.71918	20785.374	7259.3462	720.7268
	4870	544.07817	-15.405928	559.4841	290.09966	20330.538	7259.3462	728.38966
	4880	536.83207	-25.620742	562.45281	291.63897	19784.306	7259.3462	724.84983
	4890	543.9871	-9.6888601	553.67596	287.08807	19357.028	7259.3462	735.6224
	4900	535.97165	-35.452587	571.42424	296.29078	19050.132	7259.3462	730.89348
	4910	530.6875	-34.776065	565.46356	293.20009	19003.516	7259.3462	728.54314
	4920	533.57948	-24.446269	558.02575	289.34349	18662.148	7259.3462	733.99889
	4930	519.66833	-33.843524	553.51186	287.00298	18255.953	7259.3462	722.18337
	4940	527.02206	-15.972448	542.99451	281.5496	18167.438	7259.3462	731.20907
	4950	532.76749	-32.993029	565.76052	293.35407	18227.856	7259.3462	738.05886
	4960	516.77388	-31.368617	548.1425	284.21889	18152.098	7259.3462	722.69234
	4970	524.70171	-26.251716	550.95343	285.6764	17902.129	7259.3462	730.77582
	4980	516.62271	-40.257331	556.88004	288.74942	18051.182	7259.3462	722.27816
	4990	527.8946	-4.847554	532.74215	276.23362	18230.181	7259.3462	732.5783
	5000	530.01205	-31.315124	561.32718	291.05532	17941.362	7259.3462	733.16251
	5010	523.01495	-43.509729	566.52468	293.75029	18110.119	7259.3462	724.30517
	5020	534.26268	-48.262224	582.5249	302.04661	17894.091	7259.3462	733.41725
	5030	528.07928	-69.633493	597.71278	309.92172	18454.313	7259.3462	724.93895
	5040	528.0432	-30.45661	558.49981	289.5893	18904.872	7259.3462	722.73021
	5050	533.55192	-36.642125	570.19405	295.6529	19367.255	7259.3462	725.99138
	5060	538.1333	-50.250215	588.38352	305.08438	19265.836	7259.3462	728.32394
	5070	544.91544	-41.963386	586.87883	304.30418	19174.286	7259.3462	733.08922
	5080	545.21425	-48.601365	593.81562	307.90099	19716.134	7259.3462	731.53932
	5090	547.87053	-35.304756	583.17529	302.38384	19671.331	7259.3462	732.47709
	5100	539.25345	-33.172084	572.42554	296.80996	19701.06	7259.3462	722.18111
	5110	544.55454	-43.916532	588.47108	305.12978	19742.648	7259.3462	725.83744
	5120	555.23749	-23.203536	578.44103	299.92907	19706.317	7259.3462	735.00308
	5130	555.27533	-14.941842	570.21717	295.66489	19849.451	7259.3462	733.51465
	5140	550.97994	-21.50922	572.48916	296.84295	19658.361	7259.3462	727.65839
	5150	555.29232	-22.312751	577.60507	299.49562	19627.087	7259.3462	730.32589
	5160	557.20977	-12.25567	569.46544	295.27511	19783.082	7259.3462	730.39563
	5170	559.85569	-11.337772	571.19346	296.17111	19623.257	7259.3462	730.95553
	5180	552.47606	-7.1708226	559.64688	290.18407	19497.94	7259.3462	721.36711
	5190	569.61067	-6.5292645	576.13994	298.73592	19463.843	7259.3462	736.1053
	5200	565.07011	-14.79616	579.86627	300.66808	19357.888	7259.3462	729.09884
	5210	567.73574	-14.276841	582.01258	301.78097	19595.448	7259.3462	729.2522
	5220	570.56993	-27.735448	598.30538	310.22899	19962.374	7259.3462	729.61568
	5230	565.791	-19.439513	585.23052	303.44951	19861.612	7259.3462	722.55523
	5240	573.96202	-31.858509	605.82053	314.12569	19740.846	7259.3462	728.74202
	5250	567.65139	-30.151311	597.8027	309.96834	19726.461	7259.3462	720.96652
	5260	586.89263	-22.480937	609.37357	315.96799	19618.025	7259.3462	739.25853
	5270	578.25814	-24.973307	603.23145	312.78322	19628.143	7259.3462	730.30659
	5280	577.37031	-33.586751	610.95706	316.78905	19523.103	7259.3462	729.74806
	5290	572.62973	-61.906137	634.53587	329.01496	19893.545	7259.3462	726.01228
	5300	572.70559	-14.081689	586.78728	304.25671	19533.475	7259.3462	727.80182
	5310	570.0093	-18.299723	588.30902	305.04575	19645.373	7259.3462	727.17254
	5320	561.03598	-21.723743	582.75972	302.16837	19479.642	7259.3462	720.56541
	5330	585.95122	-15.982773	601.93399	312.11047	19056.289	7259.3462	748.18849
	5340	559.32012	-32.469308	591.78943	306.85039	19198.98	7259.3462	724.39972
	5350	556.39837	-25.993238	582.39161	301.9775	19171.26	7259.3462	724.48932
	5360	556.54585	-34.753403	591.29926	306.59623	19296.195	7259.3462	727.77618
	5370	551.27928	-15.037429	566.31671	293.64246	19520.414	7259.3462	725.5676
	5380	559.6765	-11.943753	571.62025	296.39241	19777.338	7259.3462	737.07137
	5390	540.81372	-24.724399	565.53812	293.23875	20492.109	7259.3462	721.16812
	5400	554.65956	-5.6978238	560.35738	290.55247	20463.452	7259.3462	737.69068
	5410	547.42283	-15.534438	562.95727	291.90054	20230.927	7259.3462	732.70839
	5420	537.53685	-30.751035	568.28789	294.66454	20100.411	7259.3462	724.74801
	5430	540.31415	-27.48105	567.7952	294.40907	19891.536	7259.3462	729.32036
	5440	538.73703	-30.246222	568.98325	295.02509	19656.349	7259.3462	729.25535
	5450	541.65823	-16.527883	558.18611	289.42664	19063.838	7259.3462	733.50797
	5460	533.17133	-13.775693	546.94702	283.59903	19057.925	7259.3462	725.95681
	5470	542.17805	-25.617882	567.79593	294.40945	19206.221	7259.3462	735.33449
	5480	531.78161	-10.68969	542.4713	281.27831	19023.719	7259.3462	724.88828
	5490	534.68355	-15.865718	550.54927	285.46684	18838.114	7259.3462	727.18633
	5500	541.39461	-21.775315	563.16993	292.01081	18710.885	7259.3462	732.85301
	5510	534.5071	-6.7043742	541.21147	280.62507	18653.478	7259.3462	724.47312
	5520	546.32173	-13.251723	559.57345	290.14599	18635.033	7259.3462	734.2322
	5530	533.25063	-15.639753	548.89039	284.60669	18961.305	7259.3462	718.69164
	5540	550.93856	-7.626418	558.56498	289.62309	18741.579	7259.3462	733.34062
	5550	551.79856	-27.751759	579.55032	300.50425	18497.565	7259.3462	730.79972
	5560	543.85474	-27.090507	570.94524	296.04241	18562.305	7259.3462	719.35113
	5570	563.39657	-31.345589	594.74216	308.38142	18685.376	7259.3462	735.29892
	5580	559.92066	-28.4719	588.39256	305.08907	19134.252	7259.3462	728.48112
	5590	567.81896	-19.132292	586.95126	304.34173	19401.262	7259.3462	733.20449
	5600	563.15145	-33.463486	596.61494	309.35247	19383.833	7259.3462	725.52137
	5610	562.59759	-33.449842	596.04744	309.05822	19881.997	7259.3462	722.11995
	5620	575.38342	1.3191868	574.06423	297.65965	19797.895	7259.3462	732.33227
	5630	574.20348	-12.241971	586.44545	304.07946	19503.906	7259.3462	728.79115
	5640	576.65728	-29.930903	606.58818	314.52373	19989.685	7259.3462	729.23205
	5650	581.81333	-34.564677	616.378	319.59988	20122.997	7259.3462	732.93378
	5660	579.34237	-34.795737	614.13811	318.43846	19721.006	7259.3462	729.64698
	5670	576.62743	-15.22225	591.84968	306.88163	19593.523	7259.3462	726.74673
	5680	578.09752	-11.837161	589.93468	305.88868	19203.845	7259.3462	728.36708
	5690	579.65993	-10.569753	590.22968	306.04164	19076.467	7259.3462	730.32402
	5700	573.85547	0.11900697	573.73646	297.48969	19044.88	7259.3462	725.08698
	5710	580.95153	-6.990516	587.94204	304.85547	19274.272	7259.3462	732.83131
	5720	575.19314	-10.357012	585.55015	303.61524	19261.762	7259.3462	727.90599
	5730	584.61425	-11.513191	596.12744	309.0997	19426.736	7259.3462	738.38185
	5740	569.071	-28.287133	597.35813	309.73783	19630.914	7259.3462	724.13196
	5750	569.52602	-20.185435	589.71145	305.77293	19602.851	7259.3462	726.09397
	5760	575.02282	-23.42269	598.44551	310.30165	19214.331	7259.3462	733.38383
	5770	556.69384	-33.837147	590.53098	306.19787	19159.982	7259.3462	717.1796
	5780	569.56373	-27.753669	597.3174	309.71671	19057.922	7259.3462	732.66756
	5790	561.74107	-26.303254	588.04432	304.9085	18991.578	7259.3462	727.76075
	5800	567.72951	-10.991743	578.72126	300.07437	18945.577	7259.3462	736.87691
	5810	559.68358	-16.65267	576.33625	298.83772	19013.81	7259.3462	731.97982
	5820	548.81072	-32.950846	581.76157	301.65081	18979.388	7259.3462	724.04561
	5830	552.02743	-19.493686	571.52112	296.34101	18740.27	7259.3462	730.15803
	5840	550.33421	-19.357955	569.69217	295.39268	18839.089	7259.3462	731.22082
	5850	547.90888	-29.987744	577.89662	299.64679	18196.645	7259.3462	731.44185
	5860	545.31556	-28.521823	573.83738	297.54202	17807.208	7259.3462	731.50514
	5870	537.14542	-29.964879	567.1103	294.05394	17741.988	7259.3462	725.86275
	5880	538.59514	-21.285979	559.88112	290.30552	18023.669	7259.3462	729.63497
	5890	539.63707	-24.116096	563.75317	292.31323	18326.827	7259.3462	732.65414
	5900	535.0317	-21.419394	556.4511	288.52701	18195.617	7259.3462	729.69706
	5910	527.96982	-31.083623	559.05345	289.87636	18324.896	7259.3462	723.91929
	5920	525.74189	-56.3698	582.11169	301.83236	18571.297	7259.3462	722.64759
	5930	530.99685	-50.274366	581.27122	301.39656	18976.084	7259.3462	728.79027
	5940	531.33509	-43.479551	574.81464	298.04874	19150.503	7259.3462	730.09097
	5950	528.27897	-33.051253	561.33022	291.0569	19605.648	7259.3462	728.07072
	5960	532.42953	-30.319654	562.74919	291.79265	19990.871	7259.3462	733.09741
	5970	534.768	-53.481725	588.24973	305.01501	19838.965	7259.3462	736.04999
	5980	527.52142	-63.284441	590.80586	306.3404	19521.785	7259.3462	729.32851
	5990	523.17172	-60.535268	583.70699	302.65954	19467.684	7259.3462	725.55444
	6000	517.81025	-46.244422	564.05467	292.46956	19365.623	7259.3462	720.83643
	6010	523.12405	-45.671157	568.79521	294.92759	19151.523	7259.3462	726.74985
	6020	532.42693	-42.386567	574.8135	298.04815	19202.733	7259.3462	736.68044
	6030	531.05637	-33.849316	564.90569	292.91082	18863.28	7259.3462	735.85342
	6040	525.75226	-36.87404	562.6263	291.72893	18612.012	7259.3462	730.81207
	6050	525.57803	-45.294411	570.87244	296.00466	18454.811	7259.3462	730.59728
	6060	518.44029	-33.944908	552.3852	286.41879	18097.718	7259.3462	723.09239
	6070	524.18618	-41.413556	565.59974	293.2707	17771.448	7259.3462	727.97753
	6080	525.20848	-39.302588	564.51107	292.70621	17529.149	7259.3462	727.80919
	6090	521.65205	-26.167611	547.81966	284.0515	17395.556	7259.3462	722.76326
	6100	529.27851	-47.213414	576.49193	298.91844	17880.265	7259.3462	728.6501
	6110	531.80802	-61.289796	593.09782	307.5288	18315.626	7259.3462	729.50756
	6120	543.93118	-48.186495	592.11768	307.02059	18362.286	7259.3462	740.14736
	6130	537.94726	-60.774685	598.72194	310.44498	18977.654	7259.3462	732.89225
	6140	524.24745	-61.97336	586.22081	303.96298	19582.485	7259.3462	718.14707
	6150	534.16041	-50.684681	584.84509	303.24966	20065.325	7259.3462	727.15074
	6160	534.09559	-53.58657	587.68216	304.72072	20578.106	7259.3462	726.23082
	6170	536.17339	-30.66192	566.83531	293.91136	20643.468	7259.3462	727.63233
	6180	537.31772	-46.645233	583.96295	302.79226	20896.424	7259.3462	728.21707
	6190	541.14827	-60.887424	602.0357	312.16321	20865.184	7259.3462	731.69737
	6200	549.8069	-56.593896	606.4008	314.42657	20614.127	7259.3462	740.42162
	6210	532.79883	-62.491055	595.28989	308.66542	20128.418	7259.3462	723.86004
	6220	536.69814	-31.953593	568.65173	294.8532	19826.228	7259.3462	728.41161
	6230	534.0941	-38.407614	572.50171	296.84946	19738.978	7259.3462	726.26283
	6240	531.08217	-23.768488	554.85065	287.69716	19188.106	7259.3462	723.45732
	6250	538.17876	-29.111827	567.29059	294.14743	18855.047	7259.3462	730.49802
	6260	536.55279	-32.715204	569.268	295.17274	18841.838	7259.3462	728.66946
	6270	544.79583	-7.3243673	552.1202	286.28138	18780.093	7259.3462	736.5787
	6280	541.00765	-40.132989	581.14064	301.32885	19004.889	7259.3462	732.06826
	6290	538.96583	-26.130994	565.09682	293.00993	19028.018	7259.3462	729.06413
	6300	538.7165	-31.643873	570.36038	295.73915	19228.39	7259.3462	727.50779
	6310	534.53769	-38.68701	573.22469	297.22434	19122.867	7259.3462	721.75489
	6320	540.79832	-22.339094	563.13741	291.99395	19198.351	7259.3462	726.32557
	6330	548.81209	-29.212323	578.02441	299.71305	18906.172	7259.3462	732.49029
	6340	547.72667	-23.870849	571.59752	296.38062	18834.496	7259.3462	729.52547
	6350	545.17908	-36.44623	581.62531	301.58016	18950.564	7259.3462	725.06353
	6360	554.05726	-53.937212	607.99448	315.25291	18948.953	7259.3462	732.08495
	6370	555.09708	-36.855722	591.9528	306.9351	18975.506	7259.3462	731.60745
	6380	554.10944	-46.282514	600.39195	311.31091	19006.524	7259.3462	729.39367
	6390	544.96181	-51.763117	596.72493	309.40951	18911.145	7259.3462	719.42137
	6400	558.8562	-56.270553	615.12675	318.95109	19267.671	7259.3462	732.97019
	6410	552.96273	-49.117891	602.08062	312.1865	19278.317	7259.3462	727.31474
	6420	552.01698	-33.938524	585.9555	303.82542	19221.244	7259.3462	727.11215
	6430	556.72397	-51.942645	608.66661	315.60142	19051.446	7259.3462	733.05123
	6440	551.24287	-43.247189	594.49006	308.2507	18837.85	7259.3462	729.38349
	6450	562.31117	-43.740571	606.05175	314.24558	19203.689	7259.3462	742.72567
	6460	538.45619	-70.292162	608.74835	315.64381	19804.009	7259.3462	721.44206
	6470	537.79047	-54.352312	592.14278	307.0336	19766.028	7259.3462	723.78143
	6480	535.41047	-50.508778	585.91925	303.80662	20064.101	7259.3462	724.61278
	6490	533.34287	-30.304432	563.64731	292.25834	19590.928	7259.3462	725.87614
	6500	535.83498	-36.667546	572.50253	296.84988	19524.491	7259.3462	731.72725
	6510	532.64217	-68.235604	600.87778	311.56281	19376.857	7259.3462	731.98122
	6520	532.56957	-64.04012	596.60969	309.34976	19100.765	7259.3462	735.61009
	6530	522.23768	-67.500264	589.73794	305.78667	18635.836	7259.3462	729.17097
	6540	507.55124	-75.13815	582.68939	302.1319	18478.751	7259.3462	718.4474
	6550	517.43892	-60.021757	577.46068	299.42075	18563.899	7259.3462	732.37958
	6560	508.5883	-48.585455	557.17375	288.90172	18874.617	7259.3462	727.36591
	6570	509.84744	-31.149902	540.99734	280.51404	18817.517	7259.3462	732.09631
	6580	505.26339	-55.061269	560.32466	290.5355	18596.322	7259.3462	730.43655
	6590	503.23067	-39.911974	543.14265	281.62641	18415.766	7259.3462	730.82553
	6600	503.09785	-44.262159	547.36001	283.81316	18092.399	7259.3462	732.44922
	6610	494.4444	-62.465139	556.90954	288.76472	18191.496	7259.3462	724.88774
	6620	502.89309	-44.081891	546.97498	283.61352	18229.818	7259.3462	733.94672
	6630	492.25537	-63.782553	556.03792	288.31277	18100.171	7259.3462	723.37591
	6640	489.79442	-59.779281	549.5737	284.96099	18193.293	7259.3462	720.52713
	6650	503.84286	-53.261529	557.10439	288.86575	18200.038	7259.3462	733.73396
	6660	501.99704	-64.293474	566.29051	293.62887	18768.646	7259.3462	730.62716
	6670	501.13151	-56.513836	557.64534	289.14624	18957.131	7259.3462	728.31511
	6680	503.24913	-74.384611	577.63374	299.51048	19593.049	7259.3462	728.75748
	6690	507.40545	-73.963861	581.36931	301.44742	20027.357	7259.3462	730.96473
	6700	510.02378	-38.284489	548.30826	284.30485	20224.702	7259.3462	731.38783
	6710	496.80405	-58.374507	555.17856	287.86718	20239.281	7259.3462	715.54858
	6720	509.9876	-49.216958	559.20456	289.95472	19851.964	7259.3462	725.70163
	6730	528.37007	-47.64473	576.0148	298.67104	19727.939	7259.3462	740.82414
	6740	514.36319	-66.339011	580.7022	301.10152	19835.94	7259.3462	723.47222
	6750	526.60289	-67.947124	594.55002	308.28179	19973.881	7259.3462	732.4236
	6760	525.75301	-67.818917	593.57193	307.77464	20446.751	7259.3462	728.5502
	6770	526.7729	-37.961606	564.73451	292.82206	20318.57	7259.3462	726.59128
	6780	532.92481	-41.81864	574.74345	298.01183	20259.072	7259.3462	729.62275
	6790	525.58407	-65.785671	591.36974	306.63277	20086.341	7259.3462	719.05329
	6800	550.45416	-34.326883	584.78105	303.21645	19797.546	7259.3462	740.83551
	6810	538.25699	-40.665331	578.92232	300.17863	19834.838	7259.3462	725.83266
	6820	536.48327	-36.242155	572.72542	296.96546	19801.828	7259.3462	721.29103
	6830	560.97618	-24.302058	585.27824	303.47425	19701.238	7259.3462	742.99545
	6840	548.90699	-38.960897	587.86789	304.81702	19706.875	7259.3462	728.144
	6850	553.65864	-26.748291	580.40694	300.94842	19448.769	7259.3462	730.16718
	6860	548.58964	-42.028258	590.6179	306.24293	19403.804	7259.3462	722.43538
	6870	558.30151	-24.878117	583.17963	302.38609	18891.02	7259.3462	729.53128
	6880	563.96436	10.082506	553.88186	287.19483	18676.949	7259.3462	732.7643
	6890	556.72003	-22.091693	578.81172	300.12128	18820.264	7259.3462	722.94985
	6900	571.30462	-19.656186	590.96081	306.42074	18046.079	7259.3462	734.9363
	6910	568.18129	-12.381466	580.56275	301.02921	17859.179	7259.3462	729.3702
	6920	563.80153	-32.340122	596.14165	309.10707	17474.402	7259.3462	722.63625
	6930	573.02762	-27.593548	600.62117	311.42976	17875.814	7259.3462	729.9006
	6940	574.57095	-23.361609	597.93256	310.03568	18073.666	7259.3462	729.91152
	6950	574.19205	-18.059349	592.2514	307.08993	18342.251	7259.3462	728.3597
	6960	573.66853	-18.651974	592.32051	307.12576	18540.975	7259.3462	726.98026
	6970	573.20053	-27.237658	600.43819	311.33488	18470.041	7259.3462	725.91957
	6980	575.53577	-23.824483	599.36025	310.77596	18340.323	7259.3462	728.05585
	6990	574.70252	-32.263343	606.96587	314.71956	18660.303	7259.3462	727.52484
	7000	581.30555	-38.340138	619.64569	321.29421	19223.248	7259.3462	735.15247
	7010	570.93312	-31.20328	602.1364	312.21542	19524.253	7259.3462	726.49162
	7020	573.88898	-32.737747	606.62672	314.54371	19604.415	7259.3462	731.6488
	7030	565.31266	-38.542361	603.85502	313.10655	19904.543	7259.3462	725.78695
	7040	563.84165	-28.807548	592.6492	307.29619	20119.785	7259.3462	727.41675
	7050	569.40412	-31.989433	601.39355	311.83025	19796.819	7259.3462	736.54474
	7060	548.5391	-51.282625	599.82173	311.01524	19136.938	7259.3462	719.69648
	7070	557.93221	-55.499874	613.43209	318.07238	18890.264	7259.3462	733.72229
	7080	554.57958	-58.208433	612.78801	317.73842	18934.684	7259.3462	735.59256
	7090	544.71629	-42.170094	586.88639	304.3081	18719.898	7259.3462	731.32175
	7100	526.5448	-64.146196	590.691	306.28084	18970.838	7259.3462	719.0174
	7110	530.95442	-71.442435	602.39686	312.35047	18971.029	7259.3462	729.54409
	7120	530.50073	-44.291482	574.79222	298.03712	19341.526	7259.3462	735.30433
	7130	515.33763	-31.944837	547.28247	283.77296	20034.159	7259.3462	726.18998
	7140	511.07325	-55.101322	566.17457	293.56876	20350.065	7259.3462	727.73906
	7150	510.63741	-42.30487	552.94228	286.70764	19987.743	7259.3462	732.71932
	7160	513.60829	-62.368655	575.97695	298.65141	19348.15	7259.3462	740.61309
	7170	486.44071	-70.684758	557.12547	288.87668	18853.125	7259.3462	718.07583
	7180	486.50588	-66.53711	553.04299	286.75986	18882.37	7259.3462	722.31301
	7190	486.39734	-70.960514	557.35785	288.99717	19051.288	7259.3462	725.95391
	7200	486.47552	-51.893027	538.36854	279.15097	18527.233	7259.3462	729.4452
	7210	491.43836	-78.189743	569.62811	295.35946	18160.665	7259.3462	737.42065
	7220	483.27088	-87.374411	570.64529	295.88688	18619.051	7259.3462	731.89072
	7230	480.30053	-77.773891	558.07442	289.36872	19206.621	7259.3462	731.10245
	7240	464.45008	-80.485948	544.93603	282.5563	19599.156	7259.3462	716.87001
	7250	472.32613	-60.092915	532.41905	276.06608	19360.936	7259.3462	725.70338
	7260	477.36114	-51.504615	528.86576	274.22366	19212.851	7259.3462	730.95992
	7270	482.45583	-55.688083	538.14391	279.0345	19594.283	7259.3462	735.57137
	7280	476.58934	-100.28698	576.87631	299.11775	19869.122	7259.3462	728.63067
	7290	477.96497	-93.601265	571.56623	296.3644	19853.365	7259.3462	728.50102
	7300	481.76011	-90.238763	571.99888	296.58873	19350.48	7259.3462	730.40275
	7310	465.84564	-80.100265	545.9459	283.07993	19381.659	7259.3462	712.38055
	7320	483.26916	-65.994827	549.26398	284.8004	19883.391	7259.3462	727.4575
	7330	498.49606	-67.802257	566.29832	293.63292	19915.553	7259.3462	740.00095
	7340	494.08541	-66.948754	561.03417	290.90339	19480.409	7259.3462	732.56675
	7350	493.30002	-74.572107	567.87213	294.44896	18978.238	7259.3462	728.43502
	7360	489.96181	-91.381166	581.34297	301.43377	18761.433	7259.3462	721.4786
	7370	500.5372	-59.19694	559.73414	290.22931	18851.222	7259.3462	728.24031
	7380	509.63547	-51.629844	561.26532	291.02324	18302.927	7259.3462	733.29183
	7390	500.42627	-70.477965	570.90424	296.02115	18430.913	7259.3462	719.70808
	7400	524.0112	-40.591192	564.60239	292.75356	18517.476	7259.3462	738.82689
	7410	513.22355	-58.018453	571.242	296.19628	18700.792	7259.3462	723.41001
	7420	523.62735	-45.090413	568.71776	294.88743	18965.573	7259.3462	728.89466
	7430	535.8426	-61.419235	597.26183	309.6879	18644.422	7259.3462	736.03562
	7440	531.09025	-52.726381	583.81663	302.71639	18478.581	7259.3462	726.21476
	7450	535.65057	-52.924842	588.57541	305.18388	18933.445	7259.3462	725.95056
	7460	533.62608	-61.756424	595.38251	308.71344	19311.234	7259.3462	719.31161
	7470	561.79872	-25.816393	587.61511	304.68595	19779.73	7259.3462	743.13417
	7480	546.84433	-34.638378	581.48271	301.50622	19450.921	7259.3462	724.00162
	7490	549.25204	-41.624922	590.87696	306.37726	19025.757	7259.3462	722.41298
	7500	553.3232	-63.827924	617.15112	320.00075	18963.202	7259.3462	722.8711
	7510	572.14932	-33.015374	605.16469	313.78563	18603.79	7259.3462	738.6168
	7520	566.90161	-28.477385	595.379	308.71163	18421.826	7259.3462	730.92315
	7530	562.63424	-37.935132	600.56937	311.4029	18404.287	7259.3462	724.74418
	7540	572.89182	-36.915731	609.80756	316.19302	18595.661	7259.3462	733.68255
	7550	571.98928	-43.346932	615.33621	319.0597	18641.092	7259.3462	731.86882
	7560	567.01373	-29.345562	596.35929	309.21992	18684.739	7259.3462	726.5467
	7570	555.61772	-26.604301	582.22202	301.88956	19047.108	7259.3462	715.17393
	7580	575.83617	-12.765561	588.60173	305.19753	18979.995	7259.3462	735.70076
	7590	569.48129	-23.130844	592.61213	307.27697	18992.132	7259.3462	729.96304
	7600	571.53435	-24.953087	596.48743	309.28636	19081.09	7259.3462	733.01429
	7610	567.31299	-45.900828	613.21382	317.95921	19246.073	7259.3462	730.17677
	7620	567.3434	-44.744955	612.08835	317.37564	19226.746	7259.3462	731.97549
	7630	555.94594	-31.621874	587.56781	304.66142	19714.767	7259.3462	722.8612
	7640	550.06457	-40.670361	590.73493	306.30361	20014.046	7259.3462	719.5004
	7650	565.7908	-8.629542	574.42034	297.84429	20278.315	7259.3462	737.9937
	7660	554.91149	-10.420133	565.33162	293.13167	20725.262	7259.3462	729.82111
	7670	554.09904	-40.662592	594.76163	308.39151	20666.573	7259.3462	731.75057
	7680	547.38011	-36.685842	584.06596	302.84567	20181.787	7259.3462	727.88568
	7690	553.48161	-24.737275	578.21888	299.81388	20016.225	7259.3462	736.74412
	7700	533.35273	-38.493337	571.84606	296.5095	19850.206	7259.3462	719.28692
	7710	534.36685	-19.902818	554.26966	287.39591	19468.159	7259.3462	722.96545
	7720	549.73014	-45.880867	595.611	308.83192	19180.64	7259.3462	740.79013
	7730	536.82615	-30.77516	567.60131	294.30854	18462.997	7259.3462	730.39046
	7740	532.70825	-31.548434	564.25669	292.57431	18367.798	7259.3462	728.636
	7750	525.28501	-54.26701	579.55202	300.50513	18714.9	7259.3462	723.28782
	7760	530.95922	-17.823811	548.78303	284.55102	18569.158	7259.3462	730.81864
	7770	531.87691	-11.535386	543.41229	281.76622	18346.707	7259.3462	733.16211
	7780	526.53581	-33.09892	559.63473	290.17776	17916.45	7259.3462	728.74667
	7790	532.41701	-46.214175	578.63119	300.02767	17622.253	7259.3462	735.22112
	7800	522.7261	-51.371299	574.0974	297.67685	17970.225	7259.3462	725.91378
	7810	515.77234	-48.033132	563.80547	292.34035	17674.679	7259.3462	719.16237
	7820	521.44607	-48.229003	569.67508	295.38381	17843.632	7259.3462	724.85214
	7830	527.72545	-32.023844	559.74929	290.23717	18075.75	7259.3462	731.03104
	7840	522.2561	-36.544658	558.80076	289.74534	18507.179	7259.3462	725.29288
	7850	530.3248	-51.060656	581.38545	301.45579	19403.922	7259.3462	732.95615
	7860	531.67533	-59.412216	591.08754	306.48645	19813.825	7259.3462	733.77113
	7870	529.12241	-42.845976	571.96838	296.57292	19872.516	7259.3462	730.59805
	7880	515.98196	-43.270909	559.25287	289.97977	19713.869	7259.3462	716.73072
	7890	519.50486	-47.755342	567.2602	294.13167	19832.838	7259.3462	719.2761
	7900	545.72759	-32.968203	578.6958	300.06117	19748.828	7259.3462	744.44366
	7910	530.01667	-45.115904	575.13257	298.2136	19726.293	7259.3462	727.69459
	7920	533.07863	-46.871944	579.95057	300.71179	19119.319	7259.3462	729.71957
	7930	527.54386	-71.446451	598.99031	310.58414	18613.385	7259.3462	723.16208
	7940	534.40075	-49.068153	583.4689	302.53609	18414.855	7259.3462	729.12686
	7950	536.17496	-31.506888	567.68184	294.3503	18795.207	7259.3462	730.13919
	7960	530.66676	-54.206303	584.87306	303.26416	19492.158	7259.3462	723.82004
	7970	543.38457	-44.29649	587.68106	304.72014	19472.887	7259.3462	735.86044
	7980	534.93441	-40.023787	574.9582	298.12318	19686.035	7259.3462	726.80088
	7990	536.63892	-50.540853	587.17977	304.46022	20100.939	7259.3462	727.83378
	8000	534.71576	-35.444088	570.15985	295.63517	20000.279	7259.3462	725.26442
	8010	538.56498	-37.068111	575.63309	298.47312	20167.499	7259.3462	728.39199
	8020	536.70141	-45.591207	582.29261	301.92617	20072.304	7259.3462	725.91874
	8030	540.57742	-37.459036	578.03646	299.7193	19767.312	7259.3462	729.29225
	8040	550.09508	-43.908334	594.00341	307.99837	20162.467	7259.3462	738.36448
	8050	534.78494	-44.637173	579.42211	300.43778	20368.069	7259.3462	722.71874
	8060	541.30422	-51.519166	592.82339	307.38651	20033.715	7259.3462	729.04589
	8070	542.28129	-46.803807	589.0851	305.44816	19970.501	7259.3462	730.09359
	8080	542.84536	-19.709853	562.55521	291.69207	20029.577	7259.3462	730.81841
	8090	541.14772	-44.017893	585.16561	303.41585	20652.09	7259.3462	729.16946
	8100	537.87096	-40.697254	578.56821	299.99502	20729.834	7259.3462	725.9655
	8110	540.15232	-25.551768	565.70408	293.3248	20783.475	7259.3462	728.23331
	8120	540.60011	-31.920476	572.52058	296.85924	20233.705	7259.3462	728.47765
	8130	539.04905	-34.220877	573.26992	297.24779	20008.217	7259.3462	726.67523
	8140	543.23001	-59.280534	602.51054	312.40942	20333.273	7259.3462	730.68027
	8150	542.68911	-53.771146	596.46025	309.27227	20606.476	7259.3462	730.2567
	8160	538.17968	-51.360022	589.5397	305.68388	19979.763	7259.3462	726.10804
	8170	536.3599	-52.884029	589.24393	305.53051	19784.422	7259.3462	724.89903
	8180	538.81909	-38.71293	577.53202	299.45774	19871.579	7259.3462	728.13614
	8190	537.88473	-27.04538	564.93011	292.92349	20175.821	7259.3462	727.96071
	8200	542.44067	-29.695014	572.13568	296.65967	20138.309	7259.3462	733.19685
	8210	536.23658	-36.596045	572.83263	297.02104	19589.296	7259.3462	727.5737
	8220	543.24297	-41.410594	584.65357	303.15035	19021.757	7259.3462	735.04795
	8230	534.25835	-55.907846	590.1662	306.00872	18795.773	7259.3462	726.47891
	8240	533.00577	-44.179453	577.18523	299.27792	18894.738	7259.3462	725.72422
	8250	538.67232	-55.659863	594.33219	308.16884	18682.538	7259.3462	731.98835
	8260	533.88853	-47.629393	581.51793	301.52448	18848.377	7259.3462	727.95162
	8270	532.94232	-50.847461	583.78978	302.70247	19368.364	7259.3462	727.82445
	8280	531.52105	-46.095123	577.61617	299.50137	19448.549	7259.3462	727.25414
	8290	535.74919	-30.44923	566.19842	293.58112	19321.847	7259.3462	732.25738
	8300	532.69988	-41.015827	573.7157	297.47893	18929.357	7259.3462	729.92443
	8310	531.1911	-54.634974	585.82608	303.75831	18831.184	7259.3462	729.14217
	8320	529.65006	-51.673363	581.32342	301.42363	19087.562	7259.3462	728.32537
	8330	529.8104	-23.824971	553.63537	287.06702	18771.002	7259.3462	728.98233
	8340	530.27229	-32.034474	562.30676	291.56325	18836.345	7259.3462	729.55843
	8350	522.63328	-35.333927	557.96721	289.31313	18800.472	7259.3462	721.81364
	8360	534.26984	-53.582942	587.85279	304.80919	18489.594	7259.3462	733.13517
	8370	538.71079	-35.415628	574.12642	297.69189	18741.521	7259.3462	737.23367
	8380	527.64059	-25.548869	553.18945	286.83581	19103.623	7259.3462	725.68872
	8390	528.65151	-68.822207	597.47372	309.79776	19263.057	7259.3462	725.96566
	8400	529.56495	-54.443482	584.00843	302.81584	19142.533	7259.3462	726.20754
	8410	533.02191	-43.227702	576.24961	298.79279	19299.688	7259.3462	729.02636
	8420	527.97083	-38.395021	566.36585	293.66794	19812.615	7259.3462	723.39837
	8430	529.53216	-32.131088	561.66325	291.22958	20427.173	7259.3462	724.25784
	8440	545.27291	-40.473361	585.74627	303.71693	20802.096	7259.3462	739.06354
	8450	535.11201	-36.403098	571.5151	296.33789	20370.4	7259.3462	727.95563
	8460	535.13664	-47.744997	582.88164	302.23159	20222.556	7259.3462	727.02479
	8470	538.55936	-69.181492	607.74086	315.12141	20467.92	7259.3462	729.59342
	8480	533.03308	-53.011332	586.04441	303.87152	20521.783	7259.3462	723.4172
	8490	540.04505	-44.195087	584.24014	302.93598	20418.767	7259.3462	729.98117
	8500	536.34168	-51.429785	587.77146	304.76702	20557.416	7259.3462	726.02076
	8510	537.88651	-45.202021	583.08853	302.33886	20762.074	7259.3462	727.46899
	8520	547.19726	-43.071131	590.26839	306.06171	20749.632	7259.3462	736.89072
	8530	532.73403	-47.335147	580.06918	300.77329	20835.528	7259.3462	722.63491
	8540	541.5253	-29.750365	571.27567	296.21374	20185.472	7259.3462	731.65307
	8550	541.09157	-54.158078	595.24965	308.64456	19387.435	7259.3462	731.45613
	8560	530.7466	-59.810446	590.55705	306.21138	19121.473	7259.3462	721.56411
	8570	544.57541	-52.421418	596.99682	309.55049	18730.227	7259.3462	736.15179
	8580	536.58727	-58.465438	595.05271	308.54244	18888.503	7259.3462	729.11585
	8590	532.95221	-32.875813	565.82802	293.38906	19001.917	7259.3462	726.62193
	8600	532.04589	-48.556046	580.60193	301.04953	19481.542	7259.3462	726.9175
	8610	535.0913	-38.025725	573.11703	297.16851	20365.178	7259.3462	731.17063
	8620	540.68309	-7.9266182	548.60971	284.46115	20558.876	7259.3462	737.68455
	8630	528.52456	-30.096729	558.62129	289.65228	20416.982	7259.3462	725.95331
	8640	523.13606	-34.091292	557.22735	288.92951	19830.88	7259.3462	720.65534
	8650	538.51455	-28.769547	567.2841	294.14406	19546.052	7259.3462	735.73294
	8660	536.57573	-34.590929	571.16666	296.15722	19763.993	7259.3462	733.11139
	8670	525.38466	-24.787665	550.17232	285.27138	19847.379	7259.3462	721.04293
	8680	530.2483	-53.726346	583.97465	302.79832	19767.15	7259.3462	724.75656
	8690	538.35774	-40.121507	578.47925	299.94889	19601.162	7259.3462	731.6338
	8700	536.26714	-27.70777	563.97491	292.4282	19211.539	7259.3462	728.23416
	8710	535.16625	-48.168407	583.33466	302.46648	19189.43	7259.3462	725.76178
	8720	543.13358	-43.546157	586.67974	304.20095	19236.48	7259.3462	732.37433
	8730	539.94006	-35.003903	574.94396	298.1158	18938.37	7259.3462	727.74418
	8740	536.14051	-34.057018	570.19752	295.65471	18787.246	7259.3462	722.49099
	8750	539.80938	-34.733376	574.54275	297.90777	19152.894	7259.3462	724.6283
	8760	558.71482	-10.84383	569.55865	295.32344	19531.323	7259.3462	741.93355
	8770	543.32111	-24.197086	567.5182	294.26544	19224.024	7259.3462	724.77087
	8780	545.26645	-38.402532	583.66898	302.63983	18804.972	7259.3462	724.68624
	8790	550.23491	-45.633285	595.86819	308.96528	18844.339	7259.3462	727.68214
	8800	553.87441	-15.756107	569.63052	295.36071	19209.519	7259.3462	729.5542
	8810	558.33102	-16.493047	574.82407	298.05363	19378.856	7259.3462	732.42286
	8820	555.53328	-29.124298	584.65758	303.15243	19874.771	7259.3462	728.08086
	8830	568.75967	-25.694241	594.45391	308.23195	20292.263	7259.3462	739.64859
	8840	545.41349	-32.719734	578.13323	299.76947	20363.645	7259.3462	714.65871
	8850	552.20614	-24.468291	576.67443	299.01307	20475.348	7259.3462	719.91196
	8860	566.47851	-28.69564	595.17415	308.60541	20606.465	7259.3462	732.81472
	8870	572.68301	-17.808241	590.49125	306.17726	20685.407	7259.3462	737.89945
	8880	570.53471	-40.614458	611.14916	316.88866	20688.663	7259.3462	735.09756
	8890	554.10299	-46.209127	600.31212	311.26951	20858.003	7259.3462	718.51933
	8900	573.39373	-46.324041	619.71777	321.33159	20701.673	7259.3462	738.01893
	8910	555.57732	-44.127536	599.70486	310.95464	20367.526	7259.3462	720.96665
	8920	554.21536	-39.650003	593.86536	307.92678	20293.337	7259.3462	720.90609
	8930	561.75103	-50.339513	612.09054	317.37677	20291.276	7259.3462	730.3996
	8940	558.83606	-36.47501	595.31107	308.6764	20036.308	7259.3462	730.08774
	8950	555.63636	-50.437092	606.07345	314.25684	19440.51	7259.3462	730.00326
	8960	549.54976	-62.838382	612.38815	317.53109	19014.598	7259.3462	727.61874
	8970	553.47324	-57.679166	611.15241	316.89034	18978.184	7259.3462	735.85234
	8980	540.12946	-43.133456	583.26291	302.42928	18963.1	7259.3462	727.38201
	8990	534.97341	-47.678397	582.65181	302.11241	18996.989	7259.3462	727.15701
	9000	536.34954	-44.951282	581.30083	301.41191	19016.447	7259.3462	733.37088
	9010	529.02266	-42.558689	571.58135	296.37224	18773.007	7259.3462	730.81673
	9020	515.93688	-59.789704	575.72659	298.5216	19082.218	7259.3462	722.52671
	9030	511.25684	-56.723948	567.98079	294.5053	19358.232	7259.3462	722.63226
	9040	520.54526	-62.629332	583.17459	302.38348	19493.157	7259.3462	736.4647
	9050	513.22408	-47.688244	560.91233	290.84022	19412.192	7259.3462	733.53657
	9060	500.229	-49.985534	550.21454	285.29327	19586.77	7259.3462	724.68566
	9070	493.54069	-73.540771	567.08146	294.03899	19809.732	7259.3462	721.65615
	9080	505.95493	-42.806077	548.76101	284.5396	19373.326	7259.3462	737.24708
	9090	490.6292	-66.259961	556.88916	288.75415	19534.607	7259.3462	724.56728
	9100	486.42414	-64.443618	550.86776	285.63198	19787.232	7259.3462	722.67898
	9110	491.73567	-57.524922	549.26059	284.79864	19798.563	7259.3462	729.88695
	9120	492.01681	-68.589218	560.60603	290.6814	19840.118	7259.3462	731.4997
	9130	489.70624	-60.441912	550.14815	285.25885	19573.131	7259.3462	730.12697
	9140	488.08125	-74.359467	562.44072	291.63271	19493.455	7259.3462	728.94557
	9150	489.88694	-63.146713	553.03365	286.75502	19754.022	7259.3462	730.73029
	9160	478.84423	-56.092748	534.93698	277.37166	19458.75	7259.3462	719.0508
	9170	493.68002	-72.317429	565.99745	293.47692	19261.809	7259.3462	732.60694
	9180	493.71022	-61.579307	555.28952	287.92472	18802.668	7259.3462	730.99263
	9190	495.34307	-63.149365	558.49244	289.58547	18837.679	7259.3462	730.56629
	9200	492.45197	-82.035872	574.48784	297.87929	18884.65	7259.3462	725.32524
	9210	501.12179	-69.095821	570.21762	295.66513	18534.779	7259.3462	731.42362
	9220	505.65725	-42.181764	547.83901	284.06153	18388.558	7259.3462	733.13838
	9230	497.55918	-47.248989	544.80817	282.49	18355.622	7259.3462	721.80117
	9240	504.65419	-47.9592	552.61339	286.53711	18794.187	7259.3462	725.19625
	9250	518.2597	-56.40577	574.66547	297.97139	18900.795	7259.3462	734.68818
	9260	518.6895	-54.356706	573.04621	297.13179	18903.925	7259.3462	730.64011
	9270	516.4674	-50.186415	566.65382	293.81725	19061.928	7259.3462	723.76732
	9280	509.25207	-58.633506	567.88557	294.45593	19382.285	7259.3462	711.76591
	9290	538.84071	-33.238913	572.07962	296.6306	19575.126	7259.3462	736.37464
	9300	545.21978	-4.8196888	550.03947	285.2025	19806.149	7259.3462	737.77141
	9310	542.27774	-32.881298	575.15904	298.22732	19881.272	7259.3462	729.49745
	9320	544.96562	-47.465515	592.43114	307.18312	20022.053	7259.3462	726.69366
	9330	550.02675	-34.141595	584.16834	302.89876	20270.83	7259.3462	726.2166
	9340	560.40708	-22.422576	582.82965	302.20463	20010.16	7259.3462	731.04744
	9350	553.7826	-12.281903	566.0645	293.51168	20116.554	7259.3462	718.99602
	9360	574.04205	-16.402759	590.44481	306.15319	19572.458	7259.3462	733.69199
	9370	572.71562	-41.63863	614.35425	318.55054	19404.667	7259.3462	727.17214
	9380	579.89473	-33.968272	613.863	318.29582	19371.874	7259.3462	729.68479
	9390	597.81839	-19.01934	616.83773	319.83825	19913.893	7259.3462	743.70745
	9400	570.85062	-45.594352	616.44497	319.6346	19907.578	7259.3462	713.46366
	9410	585.54741	-27.028032	612.57544	317.6282	19013.297	7259.3462	725.55827
	9420	593.27668	-47.587503	640.86419	332.29628	19061.166	7259.3462	731.6699
	9430	588.13712	-5.9351424	594.07226	308.03407	19113.668	7259.3462	725.88531
	9440	606.28663	9.3290572	596.95757	309.53013	19002.824	7259.3462	744.11083
	9450	580.74379	-25.387125	606.13091	314.28663	19032.491	7259.3462	719.02997
	9460	597.82862	-8.8788251	606.70745	314.58557	18980.804	7259.3462	737.10826
	9470	590.66397	-40.529774	631.19374	327.28203	19064.445	7259.3462	731.61327
	9480	572.45108	-20.850816	593.3019	307.63462	19184.376	7259.3462	715.67991
	9490	590.38622	-6.3830892	596.76931	309.43252	19208.877	7259.3462	736.37953
	9500	570.07366	-32.195346	602.269	312.28418	18916.461	7259.3462	719.19971
	9510	581.51988	-9.9637419	591.48362	306.69182	18514.523	7259.3462	734.35933
	9520	577.07494	-38.620029	615.69497	319.24572	19153.914	7259.3462	734.10396
	9530	569.1761	-23.821084	592.99719	307.47662	19483.103	7259.3462	730.92328
	9540	565.96021	-9.5599705	575.52018	298.41457	19711.342	7259.3462	732.67501
	9550	551.0724	-54.310396	605.3828	313.89872	19406.502	7259.3462	722.73309
	9560	557.59116	-35.122407	592.71357	307.32957	19183.468	7259.3462	734.60389
	9570	545.06176	-19.640552	564.70231	292.80537	20191.484	7259.3462	727.47392
	9580	534.93249	-42.787236	577.71973	299.55507	20349.17	7259.3462	722.58054
	9590	537.83705	-43.033401	580.87045	301.18876	19959.221	7259.3462	730.85
	9600	532.93175	-41.906919	574.83866	298.0612	20129.204	7259.3462	731.22946
	9610	528.78009	-26.794938	555.57502	288.07275	20232.829	7259.3462	732.19331
	9620	518.22985	-45.582373	563.81223	292.34385	20355.329	7259.3462	726.56076
	9630	514.81336	-57.205238	572.0186	296.59896	20069.834	7259.3462	727.90054
	9640	520.15965	-64.491016	584.65066	303.14885	19566.127	7259.3462	737.71813
	9650	504.72375	-66.966252	571.69	296.42858	19437.192	7259.3462	726.53039
	9660	489.88617	-51.10071	540.98688	280.50861	19078.136	7259.3462	715.67009
	9670	494.36502	-71.504293	565.86931	293.41048	19083.747	7259.3462	723.82322
	9680	501.46066	-54.688155	556.14882	288.37028	18680.6	7259.3462	734.40866
	9690	503.31752	-63.62571	566.94323	293.96732	18355.642	7259.3462	739.38312
	9700	492.83164	-87.881571	580.71321	301.10723	18770.803	7259.3462	731.80442
	9710	482.23313	-74.341321	556.57445	288.59097	19208.517	7259.3462	723.83695
	9720	481.99442	-74.161737	556.15616	288.37408	19293.28	7259.3462	725.67879
	9730	476.17997	-68.768087	544.94806	282.56254	19159.921	7259.3462	721.43802
	9740	484.5659	-72.855551	557.42145	289.03015	18672.998	7259.3462	730.98756
	9750	485.64757	-81.205574	566.85315	293.92061	18435.147	7259.3462	732.98646
	9760	477.19313	-84.531907	561.72504	291.26162	18373.359	7259.3462	725.30856
	9770	481.71621	-96.578322	578.29453	299.85311	18200.268	7259.3462	730.39154
	9780	485.01134	-93.255601	578.26694	299.8388	18252.131	7259.3462	734.0449
	9790	479.09473	-75.144502	554.23923	287.38013	18299.086	7259.3462	728.26033
	9800	471.62793	-83.051264	554.67919	287.60825	18883.729	7259.3462	720.5379
	9810	474.87649	-77.183327	552.05981	286.25007	18983.784	7259.3462	723.03367
	9820	492.50887	-61.391784	553.90066	287.20458	18798.426	7259.3462	739.34142
	9830	481.62013	-63.321364	544.9415	282.55913	18869.562	7259.3462	726.66268
	9840	480.41377	-72.231595	552.64536	286.55369	18948.34	7259.3462	723.16207
	9850	497.88852	-76.784388	574.6729	297.97525	19206.238	7259.3462	737.88836
	9860	487.61292	-46.63045	534.24337	277.01202	18918.68	7259.3462	724.5299
	9870	494.21747	-63.496929	557.7144	289.18205	18611.686	7259.3462	727.4525
	9880	499.49805	-75.729488	575.22754	298.26283	18467.705	7259.3462	728.66815
	9890	510.24522	-61.250287	571.4955	296.32773	18444.703	7259.3462	735.05885
	9900	499.22468	-71.990245	571.21493	296.18224	18706.233	7259.3462	719.52198
	9910	499.70529	-66.50171	566.207	293.58557	18145.851	7259.3462	715.3844
	9920	523.41142	-57.59459	581.00601	301.25905	18057.931	7259.3462	734.22416
	9930	525.72329	-28.789346	554.51264	287.52189	18179.895	7259.3462	731.75635
	9940	525.96034	-26.133219	552.09356	286.26757	18782.107	7259.3462	727.12359
	9950	541.88798	-48.366018	590.254	306.05425	19498.572	7259.3462	737.84092
	9960	541.98395	-49.402739	591.38669	306.64156	19885.678	7259.3462	732.58947
	9970	535.86758	-47.066117	582.9337	302.25858	20213.565	7259.3462	721.01842
	9980	532.92496	-47.346926	580.27188	300.87839	20348.359	7259.3462	712.61054
	9990	554.94695	-19.673902	574.62085	297.94826	20039.612	7259.3462	729.16094
	10000	567.87365	-2.4952592	570.36891	295.74358	19757.994	7259.3462	736.87909
	10010	566.2767	-32.863655	599.14035	310.66194	19391.79	7259.3462	730.29695
	10020	579.81752	-41.939615	621.75714	322.38903	19136.992	7259.3462	739.15649
	10030	575.27547	-31.316495	606.59197	314.52569	19001.47	7259.3462	730.4273
	10040	571.04761	-3.8522931	574.8999	298.09295	18865.384	7259.3462	722.30814
	10050	571.4571	4.3849203	567.07217	294.03417	18479.116	7259.3462	718.90706
	10060	585.48321	-0.22487125	585.70808	303.69713	18355.553	7259.3462	729.03929
	10070	593.38121	16.280024	577.10118	299.23434	18256.922	7259.3462	733.2912
	10080	593.93996	4.3930825	589.54688	305.6876	18245.006	7259.3462	730.37449
	10090	604.29644	0.11381751	604.18263	313.27642	18706.087	7259.3462	737.41918
	10100	600.46627	6.4544913	594.01178	308.0027	18787.969	7259.3462	730.66262
	10110	589.95893	-19.401367	609.3603	315.96111	18828.018	7259.3462	717.53332
	10120	601.12435	-5.6003387	606.72469	314.59451	19101.748	7259.3462	726.63975
	10130	616.95791	18.550394	598.40752	310.28195	18739.217	7259.3462	740.99296
	10140	609.05142	4.9411115	604.11031	313.23892	18975.464	7259.3462	732.0957
	10150	594.77574	-26.450437	621.22618	322.11372	19560.746	7259.3462	717.47402
	10160	603.62412	-19.912151	623.53627	323.31153	19540.556	7259.3462	726.79144
	10170	614.5834	-0.57353927	615.15693	318.96674	19748.107	7259.3462	738.92203
	10180	605.23681	23.80175	581.43506	301.48152	20044.016	7259.3462	731.53174
	10190	594.0567	-9.0896243	603.14632	312.73908	20504.96	7259.3462	722.82985
	10200	602.11352	-39.354376	641.46789	332.60931	20070.675	7259.3462	733.93788
	10210	595.61989	-25.786014	621.40591	322.20691	19766.607	7259.3462	731.2784
	10220	586.36214	-25.427203	611.78934	317.2206	19447.191	7259.3462	726.57566
	10230	572.09651	-20.523355	592.61986	307.28098	19414.691	7259.3462	717.62682
	10240	578.63533	-0.99335046	579.62868	300.54488	19484.559	7259.3462	729.98375
	10250	581.78606	2.4339544	579.3521	300.40147	18978.491	7259.3462	738.94874
	10260	571.42072	0.90892138	570.5118	295.81766	18527.186	7259.3462	734.21043
	10270	572.55895	-13.208479	585.76743	303.7279	18420.251	7259.3462	740.86392
	10280	542.00523	-30.969244	572.97448	297.09459	18318.016	7259.3462	715.63192
	10290	539.66491	-32.067099	571.73201	296.45036	18245.462	7259.3462	718.49389
	10300	554.25363	-19.332214	573.58584	297.4116	18081.305	7259.3462	738.18698
	10310	539.20658	1.4052028	537.80138	278.85689	18104.469	7259.3462	727.94894
	10320	541.9702	-8.2427034	550.2129	285.29243	18294.697	7259.3462	735.1525
	10330	526.36748	-44.014784	570.38227	295.7505	18895.446	7259.3462	723.49469
	10340	535.97276	-27.907086	563.87985	292.37891	18925.955	7259.3462	736.7395
	10350	532.2161	-30.51185	562.72795	291.78164	18785.88	7259.3462	736.06124
	10360	509.28424	-35.210608	544.49484	282.32754	18548.383	7259.3462	715.6762
	10370	521.17902	-25.327141	546.50616	283.37043	18706.36	7259.3462	729.75395
	10380	513.42745	-46.115128	559.54258	290.12998	19173.099	7259.3462	723.70709
	10390	520.54666	-21.461376	542.00804	281.0381	19125.087	7259.3462	732.08451
	10400	527.05384	-36.002975	563.05682	291.95216	18943.707	7259.3462	739.30243
	10410	503.73578	-31.791521	535.5273	277.67775	18629.121	7259.3462	716.20884
	10420	516.77279	-36.254418	553.02721	286.75168	18732.112	7259.3462	728.95269
	10430	516.99461	-62.477899	579.47251	300.46391	19040.301	7259.3462	728.45532
	10440	524.04448	-30.221593	554.26607	287.39404	18747.513	7259.3462	734.47921
	10450	522.23526	-36.110062	558.34532	289.50919	18794.913	7259.3462	731.27122
	10460	505.70677	-52.277039	557.98381	289.32174	18970.272	7259.3462	712.9462
	10470	526.73385	-42.919689	569.65354	295.37264	19094.556	7259.3462	731.88914
	10480	526.10762	-47.29968	573.4073	297.31902	19609.643	7259.3462	729.00137
	10490	532.75527	-35.535967	568.29123	294.66627	19496.895	7259.3462	733.22976
	10500	527.22061	-43.729234	570.94984	296.04479	19345.115	7259.3462	725.18392
	10510	531.46402	-59.299539	590.76356	306.31846	19261.97	7259.3462	726.82962
	10520	540.89292	-52.028974	592.92189	307.43758	19496.774	7259.3462	733.73558
	10530	536.8589	-49.823126	586.68203	304.20213	19466.456	7259.3462	727.31338
	10540	538.30424	-49.539968	587.8442	304.80474	19007.834	7259.3462	726.52841
	10550	529.18981	-42.774925	571.96473	296.57103	18861.686	7259.3462	715.36686
	10560	551.73755	-34.50018	586.23773	303.97176	18882.669	7259.3462	735.89921
	10570	552.02501	-32.414201	584.43921	303.03921	19531.18	7259.3462	734.39421
	10580	547.90453	-24.007277	571.91181	296.54359	19847.544	7259.3462	728.67307
	10590	548.56688	-46.271256	594.83814	308.43118	19652.548	7259.3462	727.69842
	10600	552.40748	-46.765056	599.17254	310.67862	19590.432	7259.3462	729.99935
	10610	546.58603	-41.728589	588.31462	305.04865	20254.384	7259.3462	722.91686
	10620	548.41491	-31.56893	579.98384	300.72904	20316.47	7259.3462	723.69591
	10630	552.6614	-24.979182	577.64059	299.51403	20701.368	7259.3462	727.00717
	10640	560.18192	-10.182951	570.36487	295.74148	20194.705	7259.3462	733.64287
	10650	561.16568	-33.251903	594.41758	308.21312	19798.706	7259.3462	733.90487
	10660	555.22617	-65.623625	620.84979	321.91856	20029.46	7259.3462	727.56145
	10670	562.97996	-50.339171	613.31913	318.01381	20063.269	7259.3462	735.40575
	10680	546.6698	-37.991167	584.66096	303.15419	19813.693	7259.3462	719.52921
	10690	550.78304	-27.109179	577.89222	299.64451	19260.501	7259.3462	724.35044
	10700	559.21793	-31.602754	590.82068	306.34808	19186.243	7259.3462	733.806
	10710	560.35701	-21.205892	581.5629	301.5478	19389.059	7259.3462	736.14591
	10720	557.27301	-30.16872	587.44173	304.59605	19482.311	7259.3462	734.32195
	10730	547.22468	-40.122051	587.34673	304.54679	18891.406	7259.3462	725.60692
	10740	546.20426	-39.432551	585.63681	303.66017	18155.754	7259.3462	726.05328
	10750	550.52072	-28.395509	578.91623	300.17547	17794.452	7259.3462	731.99432
	10760	545.57595	-38.915681	584.49163	303.06638	17960.965	7259.3462	728.66965
	10770	543.40709	-33.667386	577.07448	299.2205	18303.955	7259.3462	728.24204
	10780	543.02484	-21.996571	565.02141	292.97083	18739.978	7259.3462	729.58061
	10790	532.34727	-39.316867	571.66414	296.41517	18977.245	7259.3462	720.38855
	10800	543.28925	-19.95236	563.24161	292.04798	18977.494	7259.3462	732.69918
	10810	541.26038	-18.523413	559.78379	290.25505	19359.641	7259.3462	731.8079
	10820	539.00601	-37.1823	576.18831	298.76101	19267.979	7259.3462	730.52335
	10830	538.76741	-46.724403	585.49181	303.58499	18702.273	7259.3462	731.1921
	10840	534.41515	-51.924604	586.33975	304.02466	18994.619	7259.3462	727.62887
	10850	530.81294	-35.627569	566.44051	293.70665	19658.721	7259.3462	724.73627
	10860	534.30989	-13.766763	548.07665	284.18475	19783.92	7259.3462	728.74215
	10870	533.74239	-23.71657	557.45896	289.0496	19426.72	7259.3462	728.30928
	10880	535.19862	-40.584303	575.78293	298.55081	19058.175	7259.3462	729.61152
	10890	542.04628	-43.184013	585.2303	303.44939	19068.148	7259.3462	736.2353
	10900	535.21922	-29.388402	564.60762	292.75627	19201.246	7259.3462	729.08316
	10910	538.01875	-33.899453	571.9182	296.5469	18973.917	7259.3462	731.25766
	10920	529.15805	-46.767944	575.92599	298.62499	18568.51	7259.3462	721.60171
	10930	531.52134	-46.78863	578.30997	299.86111	17999.387	7259.3462	723.07245
	10940	546.69235	-46.257635	592.94999	307.45215	17832.435	7259.3462	737.42086
	10950	538.36009	-22.011197	560.37129	290.55968	18109.104	7259.3462	728.4743
	10960	542.76643	-43.706055	586.47248	304.09348	18536.655	7259.3462	732.25347
	10970	532.31161	-52.294518	584.60613	303.12576	18871.121	7259.3462	721.22311
	10980	547.75521	-45.095603	592.85082	307.40073	18544.43	7259.3462	736.10728
	10990	539.51939	-47.377876	586.89726	304.31374	18735.602	7259.3462	727.49308
	11000	537.49527	-28.240831	565.7361	293.34141	19142.3	7259.3462	725.18424
	11010	539.73194	-53.606749	593.33869	307.6537	19425.972	7259.3462	727.14162
	11020	538.16245	-31.39808	569.56053	295.32442	19198.245	7259.3462	725.41646
	11030	547.09234	-48.058374	595.15072	308.59326	19014.463	7259.3462	734.1826
	11040	540.89801	-37.658801	578.55681	299.98911	18965.495	7259.3462	728.03129
	11050	543.79303	-46.584828	590.37785	306.11847	19266.395	7259.3462	731.08509
	11060	535.02748	-50.074076	585.10155	303.38264	19128.558	7259.3462	722.67835
	11070	550.09973	-27.919795	578.01953	299.71052	18875.828	7259.3462	738.28302
	11080	534.22473	-62.099848	596.32458	309.20192	18409.479	7259.3462	722.90972
	11090	539.82862	-32.070434	571.89905	296.53697	18176.006	7259.3462	729.18713
	11100	539.70231	-40.501269	580.20358	300.84298	18852.323	7259.3462	729.70349
	11110	530.22305	-31.160222	561.38328	291.08441	18789.108	7259.3462	720.84938
	11120	542.95722	-35.973752	578.93097	300.18311	18687.02	7259.3462	734.16176
	11130	540.38156	-56.946453	597.32802	309.72222	18875.825	7259.3462	732.18695
	11140	542.02084	-26.859542	568.88038	294.97175	19234.042	7259.3462	734.53771
	11150	536.104	-44.722593	580.82659	301.16602	19939.84	7259.3462	729.2204
	11160	520.89594	-44.334715	565.23066	293.07932	20138.558	7259.3462	714.51694
	11170	538.04697	-35.589709	573.63668	297.43795	19634.468	7259.3462	732.01041
	11180	537.6749	-51.514893	589.1898	305.50244	19472.576	7259.3462	731.89721
	11190	526.59375	-33.511844	560.1056	290.42191	19574.611	7259.3462	721.16361
	11200	538.30755	-53.176635	591.48418	306.69211	19708.478	7259.3462	733.22835
	11210	537.3837	-50.783129	588.16683	304.97202	19815.683	7259.3462	732.76212
	11220	537.78894	-44.626175	582.41511	301.98968	19420.734	7259.3462	733.69668
	11230	522.19494	-78.167671	600.36262	311.29569	19674.498	7259.3462	718.71897
	11240	529.84438	-52.486744	582.33112	301.94613	19812.03	7259.3462	727.19554
	11250	537.95129	-41.444882	579.39617	300.42433	19680.634	7259.3462	736.25663
	11260	523.28385	-25.211982	548.49583	284.4021	19189.375	7259.3462	722.51847
	11270	528.45182	-52.954239	581.40606	301.46648	18952.018	7259.3462	728.41849
	11280	538.64854	-59.671555	598.32009	310.23662	18869.34	7259.3462	739.36503
	11290	531.98941	-37.704542	569.69395	295.3936	18854.114	7259.3462	733.46634
	11300	515.48247	-46.952974	562.43544	291.62997	18826.274	7259.3462	717.5509
	11310	523.20521	-40.007436	563.21265	292.03296	18748.388	7259.3462	725.64133
	11320	528.0933	-26.212495	554.30579	287.41464	18340.871	7259.3462	730.59126
	11330	533.21029	-29.101493	562.31178	291.56585	18510.664	7259.3462	735.50342
	11340	526.81331	-50.175301	576.98861	299.17597	18791.265	7259.3462	728.67621
	11350	528.6777	-57.769889	586.44759	304.08057	18415.464	7259.3462	729.94752
	11360	528.18941	-53.131793	581.32121	301.42248	18600.308	7259.3462	728.88974
	11370	518.50167	-48.555509	567.05718	294.0264	18917.145	7259.3462	718.58147
	11380	531.80015	-45.635223	577.43538	299.40763	19389.768	7259.3462	731.17864
	11390	532.40157	-41.256069	573.65764	297.44882	19441.177	7259.3462	731.17413
	11400	537.40812	-39.708422	577.11654	299.24231	19346.334	7259.3462	735.69318
	11410	528.90943	-72.409955	601.31938	311.79179	19511.811	7259.3462	726.7224
	11420	536.06018	-61.018366	597.07855	309.59286	19517.407	7259.3462	733.5653
	11430	521.34518	-58.380924	579.72611	300.5954	19622.236	7259.3462	718.76305
	11440	525.4041	-58.647668	584.05177	302.83831	19651.397	7259.3462	722.89933
	11450	532.67166	-58.147013	590.81868	306.34704	19120.431	7259.3462	730.53496
	11460	531.86297	-56.359328	588.22229	305.00078	19422.369	7259.3462	730.41575
	11470	536.15178	-64.494972	600.64676	311.44302	19666.382	7259.3462	735.72676
	11480	522.20166	-71.418766	593.62042	307.79978	19939.383	7259.3462	723.00611
	11490	530.88303	-65.944056	596.82709	309.46248	19990.849	7259.3462	733.17147
	11500	519.08017	-59.03613	578.1163	299.76069	19864.587	7259.3462	723.13773
	11510	523.19981	-51.497182	574.69699	297.98774	20061.994	7259.3462	729.1423
	11520	528.48423	-51.514139	579.99837	300.73657	20448.878	7259.3462	736.29943
	11530	523.07471	-47.659131	570.73384	295.93279	20607.55	7259.3462	732.58648
	11540	511.6638	-58.91135	570.57515	295.85051	20341.781	7259.3462	722.57799
	11550	512.82798	-60.490153	573.31813	297.27278	19531.061	7259.3462	724.95941
	11560	511.44858	-56.421952	567.87053	294.44813	19209.341	7259.3462	724.62577
	11570	516.67613	-22.132848	538.80898	279.37935	18542.099	7259.3462	730.62343
	11580	520.81278	-33.079611	553.89239	287.20029	18600.82	7259.3462	735.0467
	11590	515.39968	-54.693548	570.09323	295.60063	18571.43	7259.3462	729.54078
	11600	520.99428	-58.401185	579.39546	300.42396	18487.62	7259.3462	734.81418
	11610	513.85329	-72.458239	586.31153	304.01002	18523.904	7259.3462	727.12315
	11620	506.04754	-64.309388	570.35693	295.73736	18828.09	7259.3462	718.6363
	11630	512.41116	-43.753389	556.16455	288.37843	19085.508	7259.3462	724.22211
	11640	520.28866	-49.877912	570.16657	295.63866	19455.225	7259.3462	731.21257
	11650	525.57426	-42.253248	567.82751	294.42582	19595.143	7259.3462	735.59831
	11660	528.73732	-48.84792	577.58524	299.48533	19680.089	7259.3462	737.7153
	11670	518.73484	-54.121585	572.85643	297.03338	20088.044	7259.3462	726.41733
	11680	515.66252	-37.571501	553.23402	286.85891	19837.639	7259.3462	721.70927
	11690	520.28713	-53.301478	573.58861	297.41303	19609.304	7259.3462	724.31749
	11700	523.71114	-19.971569	543.6827	281.90644	19652.156	7259.3462	725.58898
	11710	539.35481	-36.071831	575.42664	298.36607	19696.948	7259.3462	738.71768
	11720	530.48241	-46.759286	577.2417	299.3072	19727.726	7259.3462	727.13763
	11730	534.37794	-40.752501	575.13044	298.21249	19390.556	7259.3462	728.17287
	11740	537.56352	-63.051494	600.61502	311.42657	19734.051	7259.3462	728.52431
	11750	535.67957	-51.880665	587.56024	304.6575	19696.749	7259.3462	724.03825
	11760	551.1859	-39.190788	590.37669	306.11786	19486.066	7259.3462	737.10133
	11770	539.52103	-45.74345	585.26448	303.46712	19796.782	7259.3462	723.23948
	11780	546.73172	-42.055654	588.78737	305.29378	19755.916	7259.3462	728.44599
	11790	550.98777	-52.063794	603.05156	312.68995	19742.478	7259.3462	730.92569
	11800	549.79299	-52.692678	602.48567	312.39652	19580.538	7259.3462	728.25553
	11810	554.74991	-45.242832	599.99274	311.10391	19617.789	7259.3462	732.18656
	11820	542.85349	-54.657041	597.51054	309.81685	19926.708	7259.3462	719.80261
	11830	556.81524	-46.030003	602.84524	312.58297	19945.069	7259.3462	733.74963
	11840	558.45667	-52.719282	611.17595	316.90255	19417.377	7259.3462	735.86493
	11850	545.73558	-64.127512	609.86309	316.22181	19498.417	7259.3462	724.19835
	11860	544.84635	-73.436332	618.28268	320.58748	19771.253	7259.3462	725.1081
	11870	543.68663	-67.545536	611.23217	316.9317	20105.44	7259.3462	726.44817
	11880	549.2842	-37.57523	586.85943	304.29412	20327.026	7259.3462	735.05468
	11890	531.37786	-41.581018	572.95888	297.08651	20697.447	7259.3462	720.32588
	11900	538.03025	-36.489576	574.51983	297.89588	21290.834	7259.3462	730.27523
	11910	536.87798	-49.268936	586.14692	303.92467	21610.694	7259.3462	732.48681
	11920	533.1275	-57.592964	590.72047	306.29612	21715.056	7259.3462	732.24596
	11930	533.52488	-70.813129	604.33801	313.35699	21521.7	7259.3462	736.35929
	11940	513.31238	-82.518804	595.83119	308.94609	21122.877	7259.3462	720.15942
	11950	513.27272	-75.705307	588.97803	305.39264	20950.906	7259.3462	724.42327
	11960	511.42026	-83.272909	594.69317	308.35601	20899.537	7259.3462	727.08816
	11970	511.83729	-47.582446	559.41974	290.06629	20453.832	7259.3462	732.13832
	11980	506.89069	-68.62475	575.51544	298.41212	20230.174	7259.3462	731.73734
	11990	499.588	-74.787882	574.37588	297.82124	19678.969	7259.3462	729.02181
	12000	499.9085	-82.97286	582.88136	302.23144	19840.351	7259.3462	733.72631
	12010	491.93503	-67.417234	559.35226	290.0313	19432.302	7259.3462	729.82751
	12020	485.91366	-55.225779	541.13944	280.58772	18968.523	7259.3462	727.37377
	12030	473.51886	-56.619567	530.13843	274.88356	18892.49	7259.3462	717.92925
	12040	491.28449	-44.202798	535.48729	277.65701	18514.579	7259.3462	737.96527
	12050	482.32247	-64.243064	546.56553	283.40122	18586.439	7259.3462	730.39757
	12060	484.60811	-42.936775	527.54488	273.53877	18566.087	7259.3462	733.29864
	12070	468.68254	-71.341638	540.02418	280.00944	18356.269	7259.3462	717.1189
	12080	475.68903	-60.132059	535.82109	277.83009	18263.784	7259.3462	723.10714
	12090	496.98557	-44.687042	541.67261	280.86418	18263.421	7259.3462	742.75947
	12100	483.19582	-67.728815	550.92463	285.66147	18377.328	7259.3462	726.58319
	12110	490.9023	-62.508519	553.41082	286.95059	18690.372	7259.3462	731.31272
	12120	481.40957	-72.927943	554.33751	287.43109	18914.904	7259.3462	718.33029
	12130	496.67712	-48.834337	545.51146	282.85467	18918.792	7259.3462	729.5215
	12140	501.276	-40.77947	542.05547	281.06269	19317.932	7259.3462	729.49825
	12150	507.05738	-53.274573	560.33196	290.53929	19569.106	7259.3462	730.07745
	12160	512.15852	-51.895004	564.05352	292.46896	19658.358	7259.3462	729.63893
	12170	516.46011	-56.115825	572.57594	296.88795	19957.51	7259.3462	727.95829
	12180	521.51642	-35.20452	556.72094	288.66693	20114.646	7259.3462	726.74249
	12190	527.11611	-29.097401	556.21352	288.40382	20092.191	7259.3462	725.74186
	12200	532.41222	-39.831434	572.24366	296.71565	20351.668	7259.3462	723.85553
	12210	541.91356	-23.030885	564.94445	292.93092	19952.215	7259.3462	726.0907
	12220	555.55053	-43.691997	599.24253	310.71491	20160.28	7259.3462	732.36851
	12230	561.29883	-23.915996	585.21483	303.44137	19971.115	7259.3462	730.91005
	12240	568.86198	-26.900802	595.76278	308.91062	19694.548	7259.3462	731.462
	12250	563.06151	-41.597049	604.65856	313.5232	19326.051	7259.3462	718.90302
	12260	579.83479	-13.839294	593.67408	307.8276	19033.593	7259.3462	729.41579
	12270	590.5087	-24.421621	614.93033	318.84924	18687.381	7259.3462	734.2181
	12280	588.46326	-3.8581657	592.32143	307.12624	18544.39	7259.3462	726.887
	12290	596.15831	-10.184842	606.34315	314.39668	18795.524	7259.3462	729.80344
	12300	602.48976	-6.8349488	609.32471	315.94265	18995.129	7259.3462	731.91337
	12310	608.78203	-1.5629777	610.34501	316.47169	19069.435	7259.3462	734.59327
	12320	606.72596	-13.895267	620.62122	321.80004	19635.731	7259.3462	729.44986
	12330	601.36558	-4.8932634	606.25884	314.35296	19947.17	7259.3462	721.78188
	12340	603.56961	-12.128139	615.69775	319.24715	20697.842	7259.3462	722.31008
	12350	615.67381	1.3961288	614.27768	318.51083	20778.654	7259.3462	733.52396
	12360	612.56035	-0.30972804	612.87008	317.78097	20713.331	7259.3462	730.32548
	12370	606.8935	-21.181903	628.0754	325.66513	20531.195	7259.3462	725.41387
	12380	612.6892	-15.95154	628.64074	325.95826	20210.524	7259.3462	733.07331
	12390	610.24183	-28.05595	638.29778	330.96556	20219.128	7259.3462	733.59594
	12400	599.44371	-34.651907	634.09562	328.78669	20137.258	7259.3462	727.03802
	12410	601.07354	-43.863871	644.93741	334.4083	20418.86	7259.3462	734.07762
	12420	587.40312	-48.26525	635.66837	329.60218	20272.674	7259.3462	726.92798
	12430	580.07658	-21.532526	601.60911	311.94201	19949.737	7259.3462	727.23436
	12440	575.4926	-54.051355	629.54395	326.42659	19702.973	7259.3462	731.08113
	12450	563.16397	-35.783125	598.94709	310.56173	19355.885	7259.3462	727.99388
	12460	563.94375	-43.371729	607.31548	314.90085	19496.569	7259.3462	738.34196
	12470	543.39637	-50.215294	593.61167	307.79524	19564.554	7259.3462	727.62839
	12480	532.55048	-12.086096	544.63657	282.40103	19251.02	7259.3462	726.44678
	12490	528.90683	-53.815941	582.72277	302.14921	19446.926	7259.3462	732.11294
	12500	514.0564	-42.774818	556.83122	288.72411	18990.171	7259.3462	726.44051
	12510	521.16398	-40.683536	561.84752	291.32512	18831.675	7259.3462	742.42526
	12520	497.76318	-70.043055	567.80624	294.4148	18996.895	7259.3462	727.29355
	12530	484.62784	-57.128495	541.75633	280.90759	18852.168	7259.3462	721.95157
	12540	483.70702	-88.698647	572.40567	296.79966	18980.328	7259.3462	728.49769
	12550	471.28551	-67.876982	539.16249	279.56265	18796.539	7259.3462	723.05883
	12560	478.62549	-63.144668	541.77016	280.91476	19019.924	7259.3462	737.0154
	12570	466.17781	-94.463741	560.64155	290.69981	19375.023	7259.3462	730.65057
	12580	454.51651	-100.85365	555.37015	287.96653	19652.682	7259.3462	724.45057
	12590	458.40979	-101.08341	559.4932	290.10438	19846.085	7259.3462	733.37724
	12600	441.49154	-101.59037	543.08191	281.59491	19784.99	7259.3462	720.79444
	12610	437.58214	-95.765944	533.34809	276.5478	19783.487	7259.3462	720.67483
	12620	451.69739	-92.63557	544.33296	282.2436	19992.383	7259.3462	738.02211
	12630	438.57378	-100.99867	539.57245	279.77522	19820.088	7259.3462	727.32736
	12640	444.73063	-89.153646	533.88427	276.82582	19811.414	7259.3462	735.23684
	12650	430.40395	-109.31644	539.72039	279.85193	19677.715	7259.3462	721.78873
	12660	436.0728	-108.08311	544.15591	282.1518	19493.719	7259.3462	727.56421
	12670	440.57554	-90.029474	530.60501	275.12548	19416.372	7259.3462	731.52017
	12680	436.89699	-101.97537	538.87236	279.41221	19316.391	7259.3462	726.49776
	12690	444.00698	-100.50675	544.51373	282.33733	19566.402	7259.3462	731.58691
	12700	439.06093	-100.20653	539.26746	279.61708	19784.394	7259.3462	723.94239
	12710	451.44129	-97.076019	548.51731	284.41324	19527.347	7259.3462	732.86046
	12720	446.07976	-91.455131	537.53489	278.71872	19338.039	7259.3462	723.3845
	12730	459.16713	-95.414472	554.58161	287.55765	19012.287	7259.3462	731.65236
	12740	463.72943	-95.828046	559.55747	290.13771	18794.545	7259.3462	730.94818
	12750	458.8685	-97.621349	556.48985	288.5471	19078.004	7259.3462	720.31126
	12760	477.14408	-87.719162	564.86324	292.88882	19154.891	7259.3462	732.28701
	12770	470.91381	-74.790044	545.70385	282.95443	18848.221	7259.3462	719.49971
	12780	491.92538	-70.33111	562.25649	291.53718	18690.673	7259.3462	733.27915
	12790	499.78561	-68.278521	568.06413	294.54852	18597.404	7259.3462	733.8529
	12800	495.96894	-76.305848	572.27478	296.73179	19058.363	7259.3462	722.52927
	12810	517.84342	-68.590884	586.43431	304.07369	19023.314	7259.3462	736.55209
	12820	507.64678	-62.205689	569.85247	295.4758	18989.586	7259.3462	718.7009
	12830	524.7993	-31.832904	556.63221	288.62092	18826.939	7259.3462	727.80812
	12840	533.63149	-45.840697	579.47219	300.46374	18814.295	7259.3462	728.44499
	12850	537.10955	-54.994715	592.10426	307.01363	19095.417	7259.3462	723.56439
	12860	563.90765	-42.394593	606.30224	314.37547	19475.558	7259.3462	742.15941
	12870	552.52354	-59.974541	612.49808	317.58809	19589.412	7259.3462	723.12419
	12880	563.04592	-48.231472	611.27739	316.95515	19841.813	7259.3462	726.32364
	12890	565.83156	-41.688593	607.52015	315.00697	20035.573	7259.3462	722.6259
	12900	575.25128	-47.144591	622.39587	322.72022	19658.545	7259.3462	726.03492
	12910	594.45567	-16.917426	611.3731	317.00477	19217.836	7259.3462	740.00553
	12920	582.47727	-34.470828	616.9481	319.89548	19306.716	7259.3462	723.9411
	12930	595.26311	-29.531019	624.79413	323.96375	19581.557	7259.3462	733.50603
	12940	599.30359	-3.8969764	603.20057	312.76721	19334.568	7259.3462	735.01863
	12950	591.41433	-4.7592464	596.17358	309.12362	18678.148	7259.3462	725.02861
	12960	597.21565	12.941052	584.2746	302.95385	18530.424	7259.3462	729.2647
	12970	601.61302	-2.0142112	603.62723	312.98844	18693.465	7259.3462	732.47751
	12980	606.8302	5.0391804	601.79102	312.03634	18733.22	7259.3462	736.87112
	12990	592.41202	6.2933832	586.11864	303.91001	18590.721	7259.3462	721.96276
	13000	594.30289	-10.838194	605.14108	313.77339	18734.256	7259.3462	723.51826
	13010	604.10026	29.54342	574.55684	297.91507	18770.535	7259.3462	733.35985
	13020	594.28514	5.236616	589.04852	305.42919	18548.674	7259.3462	723.68877
	13030	604.22049	-12.748926	616.96942	319.90653	18635.336	7259.3462	734.24087
	13040	597.36246	-1.4598694	598.82233	310.49703	18907.981	7259.3462	728.61478
	13050	604.65731	-16.431892	621.08921	322.0427	19167.851	7259.3462	737.64774
	13060	581.66316	-1.3690921	583.03225	302.30968	19460.742	7259.3462	716.97782
	13070	588.61986	-6.2486645	594.86853	308.44694	19577.364	7259.3462	726.54238
	13080	595.34717	-28.505067	623.85224	323.47536	19664.467	7259.3462	736.41306
	13090	581.1731	-7.8974618	589.07056	305.44062	19559.307	7259.3462	726.0106
	13100	586.55364	-28.813921	615.36757	319.07595	19305.452	7259.3462	735.72633
	13110	564.04976	-34.625669	598.67543	310.42086	19329.777	7259.3462	717.98081
	13120	576.38245	-4.6235754	581.00602	301.25905	19693.04	7259.3462	735.52875
	13130	567.22456	-35.139811	602.36437	312.33363	19930.056	7259.3462	731.72681
	13140	558.12734	-15.514774	573.64211	297.44077	19845.354	7259.3462	728.18779
	13150	559.63819	-26.25417	585.89236	303.79268	19321.078	7259.3462	735.33668
	13160	538.92512	-29.478792	568.40392	294.7247	18917.775	7259.3462	720.17217
	13170	542.0264	-37.65123	579.67763	300.57026	19042.94	7259.3462	728.87697
	13180	545.51814	-39.019952	584.5381	303.09048	18833.616	7259.3462	737.9559
	13190	528.40536	-33.248962	561.65433	291.22495	18594.25	7259.3462	726.11621
	13200	522.56483	-47.212764	569.77759	295.43697	19085.676	7259.3462	725.53969
	13210	516.75851	-52.057394	568.81591	294.93832	18789.1	7259.3462	724.67307
	13220	521.9198	-42.213485	564.13329	292.51032	18950.276	7259.3462	734.60377
	13230	519.86604	-28.740992	548.60703	284.45976	19074.158	7259.3462	737.01548
	13240	501.20947	-52.791186	554.00066	287.25643	19193.997	7259.3462	722.13114
	13250	505.34616	-50.589011	555.93517	288.2595	19417.823	7259.3462	729.60332
	13260	501.40686	-51.521048	552.92791	286.70019	19736.812	7259.3462	728.44247
	13270	493.21396	-47.44667	540.66063	280.33945	19721.525	7259.3462	722.48861
	13280	506.59835	-44.550401	551.14875	285.77768	19256.232	7259.3462	737.59873
	13290	497.69271	-68.825642	566.51835	293.74701	19142.544	7259.3462	729.91363
	13300	494.477	-59.412303	553.8893	287.19869	19058.964	7259.3462	727.58269
	13310	495.97018	-73.260095	569.23027	295.15318	19493.688	7259.3462	729.52537
	13320	493.95782	-56.669029	550.62685	285.50706	19499.488	7259.3462	727.54429
	13330	495.31963	-37.949363	533.26899	276.50679	19425.841	7259.3462	728.45059
	13340	491.35151	-70.884956	562.23647	291.5268	19342.851	7259.3462	723.43832
	13350	503.75822	-60.230775	563.98899	292.4355	19537.934	7259.3462	734.43277
	13360	502.50091	-56.615591	559.1165	289.90906	20103.979	7259.3462	731.41718
	13370	495.11134	-67.653272	562.76461	291.80065	19705.402	7259.3462	721.93462
	13380	507.24287	-46.909443	554.15231	287.33506	20088.189	7259.3462	731.71058
	13390	512.7694	-48.448332	561.21773	290.99857	19957.594	7259.3462	734.39853
	13400	506.38109	-52.416602	558.7977	289.74375	19753.583	7259.3462	724.78812
	13410	508.81468	-66.353982	575.16867	298.23231	19442.626	7259.3462	723.69994
	13420	515.50513	-79.956226	595.46135	308.75433	19084.231	7259.3462	726.68054
	13430	523.59074	-51.185185	574.77593	298.02867	19188.69	7259.3462	731.25537
	13440	522.67404	-52.938271	575.61231	298.46235	19580.636	7259.3462	726.93698
	13450	528.76763	-44.454276	573.22191	297.22289	20098.595	7259.3462	729.71513
	13460	532.74752	-50.047172	582.79469	302.1865	20065.372	7259.3462	730.35679
	13470	530.83854	-62.307949	593.14648	307.55404	20094.582	7259.3462	725.01756
	13480	538.37471	-56.526583	594.90129	308.46393	20083.297	7259.3462	729.25737
	13490	534.72481	-42.827827	577.55264	299.46843	20104.004	7259.3462	722.5086
	13500	540.55128	-33.415671	573.96695	297.60921	19917.42	7259.3462	725.48547
	13510	548.45378	-48.342172	596.79595	309.44633	19728.224	7259.3462	730.74058
	13520	559.64316	-39.755753	599.39891	310.796	19743.724	7259.3462	739.5751
	13530	556.84353	-52.678745	609.52227	316.04509	19920.486	7259.3462	734.79238
	13540	542.02011	-53.658883	595.679	308.86718	20051.118	7259.3462	718.32234
	13550	552.20098	-36.064744	588.26573	305.0233	19518.485	7259.3462	727.17603
	13560	553.34433	-28.675401	582.01973	301.78468	19263.147	7259.3462	727.21892
	13570	561.89413	-14.275135	576.16926	298.75113	18918.374	7259.3462	734.85646
	13580	560.65712	-51.476615	612.13373	317.39917	19075.904	7259.3462	732.84498
	13590	554.97498	-45.656091	600.63107	311.43489	19002.508	7259.3462	726.7374
	13600	556.33825	-37.198357	593.53661	307.75632	18918.376	7259.3462	727.97675
	13610	552.77444	-45.99812	598.77256	310.47123	18962.818	7259.3462	724.50693
	13620	559.03656	-16.142184	575.17874	298.23753	18782.699	7259.3462	731.22124
	13630	556.88625	-38.877257	595.76351	308.911	19013.554	7259.3462	729.72473
	13640	554.2422	-31.480279	585.72248	303.70459	18758.569	7259.3462	728.07561
	13650	554.18066	-57.845944	612.0266	317.34362	18542.565	7259.3462	729.25714
	13660	557.17455	-56.009995	613.18454	317.94403	18438.695	7259.3462	734.0431
	13670	549.49161	-37.450933	586.94255	304.33722	18471.604	7259.3462	728.64368
	13680	541.1403	-52.501125	593.64143	307.81067	19160.052	7259.3462	722.93327
	13690	544.98928	-32.749053	577.73833	299.56471	19059.468	7259.3462	729.68211
	13700	544.49829	-61.570527	606.06882	314.25443	19196.63	7259.3462	732.11116
	13710	544.96376	-58.55093	603.51469	312.93008	18784.602	7259.3462	735.97583
	13720	531.01262	-52.787062	583.79968	302.7076	18872.577	7259.3462	725.66236
	13730	525.04255	-57.591684	582.63423	302.1033	19428.999	7259.3462	723.49622
	13740	529.26196	-44.722956	573.98492	297.61852	19429.679	7259.3462	731.55747
	13750	527.21498	-44.336313	571.55129	296.35665	19415.19	7259.3462	733.26597
	13760	527.09786	-31.050792	558.14865	289.40721	19847.392	7259.3462	736.77643
	13770	512.31576	-56.00743	568.32319	294.68284	20056.815	7259.3462	725.193
	13780	506.33326	-65.36694	571.7002	296.43387	20384.813	7259.3462	722.13629
	13790	516.69894	-43.1147	559.81364	290.27053	20103.906	7259.3462	735.07696
	13800	502.79184	-52.437359	555.2292	287.89344	19970.132	7259.3462	723.33089
	13810	502.30845	-46.895487	549.20393	284.76926	19898.879	7259.3462	724.80885
	13820	506.93481	-67.206074	574.14088	297.69939	20223.604	7259.3462	731.02632
	13830	508.94751	-50.805445	559.75295	290.23906	20316.203	7259.3462	734.3133
	13840	507.27725	-56.949351	564.2266	292.55871	19983.42	7259.3462	733.51005
	13850	492.40763	-82.633005	575.04063	298.16592	19877.419	7259.3462	719.19347
	13860	499.09713	-61.563551	560.66068	290.70973	19196.38	7259.3462	726.28624
	13870	498.67287	-75.828533	574.5014	297.88632	19465.045	7259.3462	725.91934
	13880	502.23031	-55.60236	557.83267	289.24337	19412.426	7259.3462	729.38227
	13890	510.57921	-62.64978	573.22899	297.22656	19282.153	7259.3462	737.49477
	13900	499.83553	-71.317517	571.15305	296.15016	19293.894	7259.3462	726.32417
	13910	500.08231	-65.711864	565.79417	293.37151	19544.915	7259.3462	725.9245
	13920	499.74065	-65.457329	565.19798	293.06238	19990.098	7259.3462	724.69473
	13930	504.87488	-45.325304	550.20018	285.28583	19419.491	7259.3462	728.62172
	13940	513.27025	-58.578163	571.84841	296.51071	19096.302	7259.3462	735.44937
	13950	503.01736	-86.770377	589.78773	305.81248	18796.173	7259.3462	723.54501
	13960	508.64456	-79.723211	588.36777	305.07621	18669.072	7259.3462	727.63473
	13970	508.54517	-81.494964	590.04013	305.94336	19261.829	7259.3462	726.01241
	13980	511.54335	-51.597827	563.14118	291.9959	19274.735	7259.3462	727.50056
	13990	515.67901	-47.101138	562.78015	291.8087	19236.996	7259.3462	730.1268
	14000	511.19934	-62.74516	573.9445	297.59757	19528.166	7259.3462	724.06642
	14010	531.33467	-64.679785	596.01446	309.04112	19952.932	7259.3462	742.6104
	14020	520.87317	-69.008388	589.88155	305.86113	20442.121	7259.3462	730.62349
	14030	519.56048	-75.672497	595.23298	308.63591	20420.996	7259.3462	727.84895
	14040	510.82052	-80.831316	591.65183	306.77904	20323.324	7259.3462	717.86237
	14050	520.14113	-62.675846	582.81698	302.19806	20353.935	7259.3462	726.11741
	14060	530.39811	-53.457674	583.85579	302.73669	20496.924	7259.3462	735.51233
	14070	521.89604	-53.826507	575.72254	298.5195	20576.297	7259.3462	726.39181
	14080	528.96373	-65.209948	594.17368	308.08665	20467.143	7259.3462	733.02468
	14090	526.56721	-71.253685	597.8209	309.97778	20224.598	7259.3462	730.3491
	14100	522.44478	-50.679089	573.12387	297.17206	19856.171	7259.3462	726.03212
	14110	524.54264	-63.007668	587.55031	304.65235	19958.217	7259.3462	727.84668
	14120	521.9484	-54.311536	576.25994	298.79815	19910.447	7259.3462	725.04248
	14130	525.42387	-41.464417	566.88828	293.93882	19478.895	7259.3462	728.44102
	14140	526.74108	-69.574681	596.31576	309.19735	19478.388	7259.3462	729.74051
	14150	535.88349	-57.567626	593.45112	307.712	19286.903	7259.3462	739.15726
	14160	524.92247	-64.612069	589.53454	305.6812	19402.066	7259.3462	728.63395
	14170	522.60984	-70.723414	593.33325	307.65088	19214.267	7259.3462	726.96654
	14180	516.56011	-54.970416	571.53052	296.34589	19137.343	7259.3462	721.75134
	14190	527.72223	-60.178764	587.90099	304.83418	19123.483	7259.3462	733.6391
	14200	522.69668	-47.673271	570.36995	295.74411	19331.233	7259.3462	729.44639
	14210	514.41778	-44.670575	559.08835	289.89446	19442.593	7259.3462	721.94471
	14220	527.93336	-67.414774	595.34813	308.69562	19330.237	7259.3462	736.06906
	14230	520.15579	-53.015652	573.17145	297.19673	18815.113	7259.3462	728.97136
	14240	515.77093	-81.089812	596.86074	309.47993	18961.319	7259.3462	725.28007
	14250	514.90605	-77.570229	592.47628	307.20653	18979.618	7259.3462	725.30769
	14260	518.38288	-47.68415	566.06703	293.51299	19016.885	7259.3462	729.80499
	14270	517.83838	-50.278993	568.11737	294.57612	19535.712	7259.3462	730.23141
	14280	507.25227	-57.182008	564.43427	292.66639	19531.607	7259.3462	720.49957
	14290	525.60924	-59.853031	585.46227	303.56968	19975.676	7259.3462	739.51282
	14300	516.27623	-52.169762	568.44599	294.74651	20411.729	7259.3462	730.67061
	14310	504.70282	-43.54844	548.25126	284.27529	20491.618	7259.3462	719.36596
	14320	510.8236	-72.856594	583.6802	302.64565	20541.053	7259.3462	725.50157
	14330	520.52329	-52.993642	573.51693	297.37586	20273.487	7259.3462	735.12967
	14340	520.85567	-54.556324	575.41199	298.35848	20348.061	7259.3462	735.30335
	14350	504.1915	-90.424174	594.61567	308.31583	20873.606	7259.3462	718.42218
	14360	516.0592	-77.527576	593.58678	307.78234	20688.915	7259.3462	730.27841
	14370	510.99967	-53.795961	564.79563	292.85376	20878.802	7259.3462	725.33822
	14380	513.76499	-61.092377	574.85736	298.0709	20604.7	7259.3462	728.13778
	14390	521.74533	-55.283795	577.02912	299.19698	20210.982	7259.3462	736.24854
	14400	520.96453	-74.609067	595.5736	308.81253	20292.63	7259.3462	735.58289
	14410	515.77147	-87.673066	603.44454	312.89371	20161.423	7259.3462	730.66883
	14420	505.24234	-91.192184	596.43453	309.25893	19973.278	7259.3462	720.7007
	14430	509.47279	-68.657969	578.13076	299.76819	19267.231	7259.3462	725.63928
	14440	513.0445	-24.3666	537.4111	278.65453	19113.009	7259.3462	729.87995
	14450	505.4806	-57.689154	563.16975	292.01072	19349.272	7259.3462	722.66506
	14460	520.10589	-47.794453	567.90035	294.46359	19231.686	7259.3462	737.49611
	14470	523.09757	-55.986299	579.08387	300.26239	19390.28	7259.3462	740.36559
	14480	508.21678	-64.885344	573.10212	297.16078	19517.501	7259.3462	725.12717
	14490	501.7746	-69.255465	571.03007	296.08639	19517.819	7259.3462	718.20161
	14500	503.94317	-88.220601	592.16377	307.04449	20087.059	7259.3462	719.70682
	14510	522.20788	-44.993675	567.20156	294.10126	19831.176	7259.3462	737.41978
	14520	506.5766	-66.542194	573.1188	297.16942	19785.209	7259.3462	721.32441
	14530	512.51869	-83.759156	596.27784	309.17769	19735.084	7259.3462	726.98748
	14540	526.68527	-79.099044	605.78432	314.10692	19850.841	7259.3462	741.22572
	14550	514.98835	-94.720933	609.70928	316.14206	20424.505	7259.3462	729.94622
	14560	511.46346	-70.330476	581.79394	301.6676	20827.429	7259.3462	727.38575
	14570	507.36702	-101.91031	609.27733	315.91809	20479.889	7259.3462	724.40919
	14580	515.52062	-82.722038	598.24266	310.19647	20241.172	7259.3462	734.09161
	14590	501.58763	-60.628769	562.2164	291.51639	20394.311	7259.3462	721.9899
	14600	510.05544	-93.366819	603.42226	312.88216	20706.156	7259.3462	732.36086
	14610	509.13216	-57.017342	566.1495	293.55576	20199.023	7259.3462	733.54663
	14620	501.58748	-64.807069	566.39455	293.68282	19734.612	7259.3462	727.95672
	14630	489.49665	-91.264939	580.76158	301.13231	19680.067	7259.3462	717.72311
	14640	501.55978	-69.626799	571.18658	296.16755	19404.77	7259.3462	731.61785
	14650	507.19319	-88.363403	595.5566	308.80371	19342.504	7259.3462	739.03013
	14660	488.52778	-68.627143	557.15492	288.89195	19385.394	7259.3462	722.25766
	14670	485.30907	-88.93012	574.23919	297.75036	19459.378	7259.3462	720.73568
	14680	494.98099	-92.251791	587.23279	304.48771	19367.928	7259.3462	732.00553
	14690	490.74269	-73.252058	563.99475	292.43849	19489.216	7259.3462	729.23913
	14700	490.1336	-79.468722	569.60232	295.34609	19802.474	7259.3462	730.00678
	14710	485.85054	-80.648993	566.49953	293.73725	19589.682	7259.3462	726.95997
	14720	491.66881	-92.889685	584.55849	303.10105	19865.788	7259.3462	733.84599
	14730	487.00432	-92.243719	579.24804	300.34752	20145.005	7259.3462	730.24373
	14740	479.31163	-96.363068	575.6747	298.49469	20224.889	7259.3462	723.48481
	14750	484.53064	-82.120073	566.65072	293.81564	20228.476	7259.3462	729.53446
	14760	478.48445	-77.675976	556.16043	288.37629	20205.292	7259.3462	724.15886
	14770	478.18625	-92.750062	570.93631	296.03778	20280.8	7259.3462	724.35537
	14780	489.3783	-81.24848	570.62678	295.87728	20237.957	7259.3462	735.9367
	14790	494.45948	-95.146669	589.60615	305.71833	20476.241	7259.3462	741.23025
	14800	472.7587	-100.07345	572.83215	297.02079	20323.68	7259.3462	719.7406
	14810	475.08322	-89.619735	564.70295	292.8057	20117.883	7259.3462	722.12841
	14820	482.24446	-104.60014	586.8446	304.28643	20066.946	7259.3462	729.1061
	14830	480.48463	-57.257655	537.74228	278.82625	20133.423	7259.3462	727.02331
	14840	489.16214	-74.162541	563.32469	292.09105	20245.427	7259.3462	735.03546
	14850	474.15119	-96.378617	570.52981	295.827	20123.396	7259.3462	719.12359
	14860	492.53917	-92.29364	584.83281	303.24329	19795.716	7259.3462	736.4337
	14870	484.8945	-99.700261	584.59476	303.11986	19982.859	7259.3462	727.74616
	14880	484.57421	-98.768295	583.3425	302.47055	19835.686	7259.3462	726.44177
	14890	489.7487	-105.78703	595.53574	308.7929	19923.439	7259.3462	730.72035
	14900	481.53885	-70.614976	552.15383	286.29882	19789.669	7259.3462	721.7348
	14910	486.78681	-83.611603	570.39841	295.75887	19797.399	7259.3462	725.91274
	14920	494.72653	-70.187432	564.91396	292.91511	19839.955	7259.3462	732.59626
	14930	500.10462	-65.718814	565.82343	293.38669	19740.173	7259.3462	736.49095
	14940	494.30202	-86.140731	580.44275	300.96699	19664.096	7259.3462	728.85173
	14950	492.57788	-79.416962	571.99485	296.58664	19750.453	7259.3462	725.21607
	14960	500.71181	-84.534802	585.24661	303.45785	19672.991	7259.3462	731.25777
	14970	506.11383	-68.949138	575.06296	298.1775	19644.319	7259.3462	734.51105
	14980	497.50371	-84.102293	581.606	301.57015	19766.184	7259.3462	723.80009
	14990	505.51661	-71.906041	577.42265	299.40103	19823.006	7259.3462	729.77858
