#	Time(fs)	Total Energy(kcal/mol)	Potential Energy(kcal/mol)	Kinetic Energy(kcal/mol)	Temperature(K)	Pressure(atm)	Volume(A^3)	Conserved Quantity(kcal/mol)
	0	786.03881	218.6659	567.37291	294.19011	11391.486	7259.3462	786.03881
	10	773.78119	358.73133	415.04986	215.20866	10052.696	7259.3462	773.7692
	20	772.39979	340.59614	431.80364	223.89571	10090.52	7259.3462	772.35036
	30	740.34995	237.44703	502.90292	260.7616	10888.527	7259.3462	740.24377
	40	813.06977	337.1014	475.96837	246.79569	10123.086	7259.3462	812.89043
	50	837.80021	244.56013	593.24008	307.60257	10675.807	7259.3462	837.53173
	60	766.04685	228.94721	537.09964	278.49303	10677.596	7259.3462	765.69034
	70	805.54815	188.14673	617.40142	320.13053	11389.175	7259.3462	805.09355
	80	776.28991	124.88133	651.40858	337.76368	12680.628	7259.3462	775.73504
	90	764.29168	209.97775	554.31393	287.41886	13176.641	7259.3462	763.63877
	100	798.63703	181.19818	617.43886	320.14994	14977.745	7259.3462	797.8865
	110	789.33726	218.2608	571.07646	296.11045	16187.536	7259.3462	788.50406
	120	809.61761	194.74403	614.87357	318.81981	16793.103	7259.3462	808.70333
	130	788.05578	90.594842	697.46094	361.64242	18284.06	7259.3462	787.0686
	140	789.57034	142.71353	646.85681	335.40353	18627.595	7259.3462	788.5259
	150	805.82729	182.48431	623.34298	323.21131	19312.095	7259.3462	804.73684
	160	757.90398	151.27915	606.62483	314.54273	18985.764	7259.3462	756.78159
	170	793.32763	136.94551	656.38212	340.34252	18279.705	7259.3462	792.18482
	180	819.40643	148.59141	670.81502	347.82617	18419.703	7259.3462	818.25901
	190	781.83779	140.62647	641.21132	332.47627	17748.391	7259.3462	780.70023
	200	772.97226	119.51273	653.45952	338.82712	17690.24	7259.3462	771.86491
	210	779.56911	107.16684	672.40226	348.64917	17673.274	7259.3462	778.5092
	220	813.77525	152.17973	661.59552	343.04574	16558.585	7259.3462	812.78271
	230	795.3391	154.88356	640.45553	332.08438	17190.177	7259.3462	794.43625
	240	778.41	104.99713	673.41287	349.17319	17562.17	7259.3462	777.614
	250	809.79286	135.37464	674.41822	349.69447	17418.914	7259.3462	809.12208
	260	787.24614	147.82258	639.42356	331.54929	17190.106	7259.3462	786.70619
	270	768.84911	139.56529	629.28382	326.29171	16644.596	7259.3462	768.45463
	280	781.63023	161.71466	619.91557	321.43415	17082.193	7259.3462	781.39896
	290	795.49026	167.44448	628.04578	325.64977	16838.407	7259.3462	795.43512
	300	808.81482	167.34801	641.46682	332.60875	17035.185	7259.3462	808.95464
	310	795.97989	119.82796	676.15193	350.59342	17891.019	7259.3462	796.32289
	320	796.41678	118.23217	678.18461	351.64739	18364.651	7259.3462	796.98254
	330	774.72643	143.29007	631.43636	327.40783	18898.22	7259.3462	775.5249
	340	763.58925	132.52846	631.0608	327.21309	19353.437	7259.3462	764.63355
	350	795.03555	162.15015	632.8854	328.15917	18700.307	7259.3462	796.34867
	360	796.79681	158.84293	637.95388	330.78725	18216.556	7259.3462	798.39312
	370	796.15048	145.17836	650.97212	337.53737	18011.335	7259.3462	798.05669
	380	788.99222	100.87035	688.12187	356.79999	18189.299	7259.3462	791.21896
	390	793.715	79.005252	714.70974	370.58614	18354.039	7259.3462	796.28759
	400	783.2277	129.71748	653.51022	338.85341	17576.45	7259.3462	786.17332
	410	762.24482	115.5852	646.65962	335.30128	17736.022	7259.3462	765.57478
	420	785.29021	124.4285	660.86171	342.66525	17949.753	7259.3462	789.03564
	430	800.44694	127.67707	672.76986	348.83978	18450.888	7259.3462	804.62675
	440	787.62895	107.29398	680.33496	352.76238	19279.387	7259.3462	792.26546
	450	784.48274	113.65816	670.82458	347.83112	18910.688	7259.3462	789.60107
	460	783.02234	79.174129	703.84821	364.9543	19046.638	7259.3462	788.63975
	470	783.93111	113.60152	670.32959	347.57447	19360.705	7259.3462	790.07802
	480	780.34053	109.33393	671.0066	347.9255	19693.88	7259.3462	787.03772
	490	780.60269	94.711208	685.89149	355.64351	19579.312	7259.3462	787.87918
	500	789.29848	124.71953	664.57894	344.59268	18789.644	7259.3462	797.17586
	510	783.18364	77.545691	705.63795	365.8823	18933.408	7259.3462	791.69431
	520	775.4698	88.804849	686.66495	356.04456	19553.296	7259.3462	784.63599
	530	785.13795	113.04959	672.08836	348.48641	19271.613	7259.3462	794.97579
	540	776.48314	106.71178	669.77136	347.28502	19100.978	7259.3462	787.01743
	550	774.2871	122.24627	652.04083	338.09151	18350.151	7259.3462	785.53564
	560	790.49506	85.154562	705.3405	365.72807	18007.177	7259.3462	802.49032
	570	779.51939	105.1555	674.36389	349.6663	17972.407	7259.3462	792.26004
	580	767.31539	118.45745	648.85793	336.44114	17732.661	7259.3462	780.82414
	590	770.83511	118.16802	652.66709	338.41623	18018.589	7259.3462	785.1274
	600	773.50349	143.96372	629.53978	326.42443	17504.638	7259.3462	788.56846
	610	783.21111	128.59146	654.61966	339.42866	17549.87	7259.3462	799.08778
	620	771.71557	91.205483	680.51008	352.85318	17968.302	7259.3462	788.4278
	630	773.78694	100.57033	673.21661	349.07142	18054.914	7259.3462	791.36658
	640	780.11512	99.525358	680.58977	352.8945	18121.155	7259.3462	798.58555
	650	755.35887	94.622726	660.73615	342.60014	18357.934	7259.3462	774.7142
	660	767.54942	118.52582	649.0236	336.52704	18950.926	7259.3462	787.82829
	670	776.44966	141.19081	635.25885	329.38984	19505.438	7259.3462	797.63804
	680	765.65069	167.03212	598.61858	310.39139	19649.802	7259.3462	787.72789
	690	770.14931	147.00804	623.14127	323.10672	19554.492	7259.3462	793.13127
	700	770.13205	126.60903	643.52302	333.67491	19456.067	7259.3462	794.00929
	710	772.28277	135.48697	636.7958	330.18676	19298.614	7259.3462	797.08794
	720	754.75581	108.49952	646.25629	335.09215	19478.979	7259.3462	780.51908
	730	749.1434	88.422843	660.72055	342.59206	19239.181	7259.3462	775.8977
	740	767.30598	117.70446	649.60152	336.8267	19060.565	7259.3462	795.08782
	750	765.53393	118.56983	646.9641	335.45916	19160.724	7259.3462	794.33986
	760	757.47638	114.63003	642.84635	333.32405	19204.667	7259.3462	787.32661
	770	760.33032	105.40156	654.92876	339.58894	19598.17	7259.3462	791.23098
	780	761.17285	98.256207	662.91664	343.73076	19598.409	7259.3462	793.13155
	790	749.34199	108.95933	640.38266	332.0466	20143.201	7259.3462	782.38757
	800	753.32013	117.19844	636.1217	329.83723	20373.323	7259.3462	787.46516
	810	755.49025	109.72427	645.76598	334.83792	20783.353	7259.3462	790.73973
	820	760.26942	106.8363	653.43312	338.81343	20582.127	7259.3462	796.65815
	830	749.60423	76.439412	673.16482	349.04457	20220.179	7259.3462	787.15445
	840	746.98186	75.73854	671.24332	348.04825	19579.948	7259.3462	785.7265
	850	756.75441	96.845598	659.90882	342.17116	19524.45	7259.3462	796.71742
	860	747.97074	116.02759	631.94315	327.67061	19377.573	7259.3462	789.1403
	870	744.06599	101.72118	642.34481	333.064	19388.405	7259.3462	786.43649
	880	754.18454	90.842938	663.3416	343.9511	19558.906	7259.3462	797.78485
	890	742.1861	94.65231	647.53379	335.75455	18702.774	7259.3462	787.0312
	900	734.92484	87.521708	647.40313	335.6868	18386.625	7259.3462	781.03488
	910	739.37421	91.123713	648.25049	336.12617	18556.904	7259.3462	786.77353
	920	743.75361	94.136547	649.61706	336.83476	18293.45	7259.3462	792.45527
	930	743.05875	82.901469	660.15728	342.29999	18538.056	7259.3462	793.10173
	940	736.96591	74.896234	662.06968	343.2916	18571.009	7259.3462	788.36926
	950	742.76899	79.636382	663.13261	343.84274	18404.393	7259.3462	795.53607
	960	733.31442	89.300581	644.01384	333.92941	18720.935	7259.3462	787.4401
	970	729.58357	79.3849	650.19867	337.13633	18998.566	7259.3462	785.0946
	980	731.22742	73.485237	657.74218	341.04773	19105.244	7259.3462	788.14823
	990	733.78275	97.179173	636.60358	330.0871	19011.643	7259.3462	792.11458
