#	Time(fs)	Total Energy(kcal/mol)	Potential Energy(kcal/mol)	Kinetic Energy(kcal/mol)	Temperature(K)	Pressure(atm)	Volume(A^3)	Conserved Quantity(kcal/mol)
	0	-1131.5825	-2103.7458	972.16328	305.65996	4825.5926	28037	-1131.5825
	10	-1136.7749	-2080.0123	943.23732	296.56528	3661.5581	28037	-1136.7752
	20	-1140.5043	-2245.1231	1104.6188	347.30558	2622.4897	28037	-1140.5016
	30	-1123.609	-2232.5893	1108.9803	348.6769	2046.4387	28037	-1123.5705
	40	-1143.5401	-2271.8131	1128.273	354.74276	1951.3552	28037	-1143.4295
	50	-1125.7244	-2275.0349	1149.3105	361.3572	1825.8739	28037	-1125.4935
	60	-1143.9561	-2276.9371	1132.981	356.22299	1678.1842	28037	-1143.5641
	70	-1127.8081	-2313.1516	1185.3435	372.68641	1691.6644	28037	-1127.201
	80	-1132.2116	-2277.5833	1145.3717	360.11878	1680.2585	28037	-1131.3411
	90	-1127.6706	-2279.0219	1151.3513	361.99884	1676.0218	28037	-1126.4913
	100	-1132.8908	-2288.7493	1155.8585	363.41598	1650.8128	28037	-1131.3562
	110	-1124.6939	-2254.8299	1130.1361	355.32852	1620.5033	28037	-1122.7541
	120	-1142.2503	-2248.2037	1105.9534	347.72521	1622.984	28037	-1139.8813
	130	-1136.3839	-2292.7821	1156.3982	363.58564	1548.5765	28037	-1133.5312
	140	-1138.1143	-2287.7905	1149.6762	361.47216	1432.6433	28037	-1134.7269
	150	-1133.6361	-2289.7392	1156.1031	363.49286	1457.1506	28037	-1129.6653
	160	-1134.1263	-2261.0908	1126.9645	354.33133	1369.7151	28037	-1129.5354
	170	-1134.4096	-2282.4735	1148.064	360.96527	1347.669	28037	-1129.1575
	180	-1130.6026	-2235.1214	1104.5188	347.27414	1207.7964	28037	-1124.6487
	190	-1141.5819	-2256.6694	1115.0874	350.59704	931.38027	28037	-1134.906
	200	-1140.3809	-2268.7422	1128.3614	354.77053	818.5017	28037	-1132.9271
	210	-1141.5227	-2274.1582	1132.6356	356.1144	791.90132	28037	-1133.2455
	220	-1144.7199	-2283.5789	1138.8591	358.07113	853.58056	28037	-1135.5766
	230	-1139.393	-2285.4229	1146.0299	360.32574	824.33859	28037	-1129.3303
	240	-1140.2141	-2261.874	1121.6599	352.6635	731.56097	28037	-1129.202
	250	-1142.8367	-2268.079	1125.2423	353.78985	644.90942	28037	-1130.8435
	260	-1143.7952	-2288.057	1144.2618	359.76982	538.38847	28037	-1130.7655
	270	-1147.7291	-2308.402	1160.6729	364.92967	585.67579	28037	-1133.6003
	280	-1143.8259	-2314.81	1170.9841	368.17164	428.58032	28037	-1128.5265
	290	-1149.6271	-2275.2461	1125.619	353.9083	347.63048	28037	-1133.1353
	300	-1150.8236	-2302.616	1151.7924	362.13754	372.03213	28037	-1133.103
	310	-1148.7142	-2267.4821	1118.7679	351.75424	295.60211	28037	-1129.7245
	320	-1147.2997	-2266.5836	1119.2838	351.91645	170.44155	28037	-1127.0224
	330	-1153.1386	-2227.9921	1074.8535	337.94701	87.980288	28037	-1131.5695
	340	-1153.6917	-2295.5573	1141.8656	359.01642	164.34465	28037	-1130.7755
	350	-1150.5043	-2221.9591	1071.4549	336.87844	357.43835	28037	-1126.198
	360	-1163.5818	-2278.9647	1115.3829	350.68995	266.72316	28037	-1137.8871
	370	-1158.5873	-2250.1246	1091.5373	343.19261	165.56448	28037	-1131.4328
	380	-1168.0192	-2323.9721	1155.9529	363.44565	59.108393	28037	-1139.3639
	390	-1157.642	-2290.369	1132.7269	356.14312	89.074779	28037	-1127.3919
	400	-1164.3461	-2300.5346	1136.1886	357.2315	-47.797289	28037	-1132.4971
	410	-1160.2621	-2280.5989	1120.3368	352.24751	-95.770167	28037	-1126.7654
	420	-1166.2382	-2292.0114	1125.7732	353.95677	-150.44297	28037	-1131.0737
	430	-1163.2897	-2267.5157	1104.2261	347.1821	-34.952325	28037	-1126.4137
	440	-1174.2405	-2278.0168	1103.7764	347.04071	90.482431	28037	-1135.6526
	450	-1170.3126	-2284.9212	1114.6086	350.4465	181.01121	28037	-1129.9465
	460	-1177.3777	-2280.0224	1102.6447	346.6849	205.46458	28037	-1135.2193
	470	-1172.8403	-2283.0774	1110.2371	349.07205	227.199	28037	-1128.8434
	480	-1178.8117	-2261.8811	1083.0694	340.53018	122.0268	28037	-1132.9785
	490	-1178.8561	-2296.7996	1117.9435	351.49501	47.622425	28037	-1131.1357
	500	-1179.3495	-2300.8209	1121.4714	352.60423	40.388071	28037	-1129.6718
	510	-1179.923	-2299.9727	1120.0497	352.15725	165.74085	28037	-1128.244
	520	-1181.6153	-2261.9144	1080.2991	339.65918	237.65378	28037	-1127.9346
	530	-1193.2836	-2280.1611	1086.8775	341.72749	180.05103	28037	-1137.6139
	540	-1192.8609	-2346.5602	1153.6992	362.73707	-73.954215	28037	-1135.0803
	550	-1185.1828	-2309.4558	1124.273	353.4851	-70.259979	28037	-1125.2075
	560	-1194.7425	-2287.3587	1092.6161	343.5318	-26.487742	28037	-1132.625
	570	-1194.515	-2311.816	1117.301	351.29302	-128.60393	28037	-1130.2084
	580	-1192.664	-2263.3588	1070.6948	336.63948	28.289312	28037	-1126.1528
	590	-1207.0774	-2294.8772	1087.7998	342.01749	-80.672455	28037	-1138.3882
	600	-1195.9818	-2305.136	1109.1542	348.73155	-269.22169	28037	-1124.9929
	610	-1208.156	-2278.2054	1070.0495	336.43656	-153.88903	28037	-1134.9016
	620	-1203.4831	-2287.7025	1084.2195	340.89178	20.103471	28037	-1127.9247
	630	-1209.5511	-2260.37	1050.819	330.39026	119.14073	28037	-1131.7111
	640	-1214.4831	-2292.0521	1077.5691	338.80082	224.66761	28037	-1134.341
	650	-1210.1915	-2287.2408	1077.0493	338.6374	319.32508	28037	-1127.6738
	660	-1218.0587	-2287.8847	1069.826	336.3663	469.6517	28037	-1133.1713
	670	-1221.1074	-2319.7968	1098.6894	345.4413	666.9033	28037	-1133.7827
	680	-1220.7616	-2336.1723	1115.4108	350.69872	631.86328	28037	-1130.9074
	690	-1220.9633	-2316.0761	1095.1128	344.31677	820.28269	28037	-1128.551
	700	-1229.4076	-2306.2162	1076.8086	338.56173	756.41145	28037	-1134.4657
	710	-1233.1607	-2358.6086	1125.4479	353.85451	505.80412	28037	-1135.6116
	720	-1225.8653	-2335.3589	1109.4936	348.83828	510.23001	28037	-1125.6161
	730	-1237.5311	-2315.7937	1078.2626	339.01888	557.35192	28037	-1134.6487
	740	-1237.5186	-2356.7113	1119.1927	351.8878	284.96579	28037	-1131.9283
	750	-1234.8083	-2340.161	1105.3527	347.53632	151.66487	28037	-1126.4406
	760	-1240.6877	-2305.2799	1064.5922	334.72073	215.69429	28037	-1129.5943
	770	-1249.3382	-2357.8341	1108.496	348.52461	16.040611	28037	-1135.4887
	780	-1240.0983	-2321.4411	1081.3428	339.98731	-28.877926	28037	-1123.3966
	790	-1255.3144	-2319.5704	1064.256	334.61502	62.844843	28037	-1135.8492
	800	-1253.0506	-2340.5872	1087.5367	341.93476	-24.444737	28037	-1130.7369
	810	-1256.1699	-2343.8378	1087.668	341.97603	-46.081992	28037	-1130.9667
	820	-1257.7346	-2310.7305	1052.9959	331.07471	124.31085	28037	-1129.6547
	830	-1262.952	-2310.9874	1048.0354	329.51508	323.24573	28037	-1132.0347
	840	-1265.2566	-2309.1732	1043.9166	328.22008	490.84649	28037	-1131.49
	850	-1266.7409	-2306.4386	1039.6977	326.8936	352.35288	28037	-1130.1182
	860	-1269.521	-2288.6786	1019.1576	320.43553	160.37267	28037	-1130.06
	870	-1275.4868	-2303.1624	1027.6756	323.11371	77.898991	28037	-1133.1909
	880	-1277.7309	-2326.2018	1048.4709	329.65199	22.227783	28037	-1132.529
	890	-1279.9217	-2331.6126	1051.6909	330.66439	-20.030669	28037	-1131.758
	900	-1282.4223	-2330.4982	1048.0759	329.5278	-3.8929595	28037	-1131.2765
	910	-1286.5732	-2324.0774	1037.5042	326.20394	-45.317891	28037	-1132.4508
	920	-1290.6346	-2340.0525	1049.4179	329.94974	-90.694277	28037	-1133.5165
	930	-1290.9881	-2339.4768	1048.4886	329.65757	-91.647356	28037	-1130.8362
	940	-1296.107	-2338.9776	1042.8706	327.89121	-89.827499	28037	-1132.926
	950	-1295.0191	-2351.6071	1056.588	332.20412	-166.66235	28037	-1128.7584
	960	-1301.7609	-2339.2951	1037.5342	326.21338	-152.74686	28037	-1132.4239
	970	-1305.7912	-2380.9197	1075.1285	338.03348	-181.45664	28037	-1133.3113
	980	-1311.1592	-2398.0794	1086.9202	341.74093	-256.27678	28037	-1135.439
	990	-1307.4632	-2392.8277	1085.3645	341.2518	-135.03154	28037	-1128.4351
